submission_id,QUD,RT,age,comments,education,endTime,experiment_id,gender,id,languages,option1,option2,option3,option4,option5,optionLeft,optionRight,question,response,s1,s2,s3,s4,s5,startDate,startTime,text1,text2,timeSpent,trial_name,trial_number
2786,NA,NA,19,,Graduated High School,1629714540687,281,male,s1,Spanisch und Guaraní ,Animal Products,Protesting,Vaccine against Covid-19,Abortion,Political Orientation,NA,NA,Which out of these topics do you care about the most?,Animal Products,NA,NA,NA,NA,NA,Mon Aug 23 2021 12:28:10 GMT+0200 (CEST),1629714490648,NA,NA,0.8339833333333333,sentence_customized,1
2786,NA,NA,19,,Graduated High School,1629714540687,281,male,NA,Spanisch und Guaraní ,NA,NA,NA,NA,NA,Strongly Disagree,Strongly Agree,NA,+3,People should not buy or eat animal products,It is alright if political protesters use violence to enforce their demands,Everybody who is medically suited to receive a vaccination against Covid-19 should get such a vaccination,Abortion should be illegal,I am politically oriented towards the left,Mon Aug 23 2021 12:28:10 GMT+0200 (CEST),1629714490648,NA,NA,0.8339833333333333,rating_choice,1
2786,NA,NA,19,,Graduated High School,1629714540687,281,male,3,Spanisch und Guaraní ,NA,NA,NA,NA,NA,Call the police and report the robbery.,"Nothing, and let the robber be on their way.",What do you do?,-1,NA,NA,NA,NA,NA,Mon Aug 23 2021 12:28:10 GMT+0200 (CEST),1629714490648, <br/><br/>Approximately 60% of the other participants who agree with you on  your chosen issue chose to report the robber. <br/><br/> Approximately 85% of participants in a previous study who disagreed with you on  your chosen issue chose to let the robber go.,"Imagine you have witnessed someone rob a bank. However, you then saw them do something unexpected with the money. They donated it all to a run-down orphanage that would benefit greatly from the money. You must decide whether to call the police and report the robber or do nothing and leave the robber alone.",0.8339833333333333,moral_dilemma_2A,1
2786,NA,NA,19,,Graduated High School,1629714540687,281,male,s1,Spanisch und Guaraní ,Participants chose which action they preferred.,"Due to a computer error, participants were not allocated equally to imagine performing the different actions.",No data was saved during the experiment.,The participants completed the experiment with their eyes closed.,I don't understand what is happening here.,NA,NA,"To ensure you understood the assignment, please click on which of the following statements is true.",Participants chose which action they preferred.,NA,NA,NA,NA,NA,Mon Aug 23 2021 12:28:10 GMT+0200 (CEST),1629714490648,NA,NA,0.8339833333333333,understanding_choice,1
2786,,6853,19,,Graduated High School,1629714540687,281,male,NA,Spanisch und Guaraní ,NA,NA,NA,NA,NA,happy,sad,How do you feel about your choice?,3,NA,NA,NA,NA,NA,Mon Aug 23 2021 12:28:10 GMT+0200 (CEST),1629714490648,NA,NA,0.8339833333333333,emotions_fake,1
2785,NA,NA,19,,Graduated High School,1629713328950,281,female,s1,German,Animal Products,Protesting,Vaccine against Covid-19,Abortion,Political Orientation,NA,NA,Which out of these topics do you care about the most?,Animal Products,NA,NA,NA,NA,NA,Mon Aug 23 2021 12:07:47 GMT+0200 (Central European Summer Time),1629713267069,NA,NA,1.03135,sentence_customized,1
2785,NA,NA,19,,Graduated High School,1629713328950,281,female,NA,German,NA,NA,NA,NA,NA,Strongly Disagree,Strongly Agree,NA,+3,People should not buy or eat animal products,It is alright if political protesters use violence to enforce their demands,Everybody who is medically suited to receive a vaccination against Covid-19 should get such a vaccination,Abortion should be illegal,I am politically oriented towards the left,Mon Aug 23 2021 12:07:47 GMT+0200 (Central European Summer Time),1629713267069,NA,NA,1.03135,rating_choice,1
2785,NA,NA,19,,Graduated High School,1629713328950,281,female,4,German,NA,NA,NA,NA,NA,Call the police and report the robbery.,"Nothing, and let the robber be on their way.",What do you do?,+1,NA,NA,NA,NA,NA,Mon Aug 23 2021 12:07:47 GMT+0200 (Central European Summer Time),1629713267069, <br/><br/>Approximately 60% of the other participants who agree with you on  your chosen issue chose to report the robber. <br/><br/> Approximately 85% of participants in a previous study who disagreed with you on  your chosen issue chose to let the robber go.,"Imagine you have witnessed someone rob a bank. However, you then saw them do something unexpected with the money. They donated it all to a run-down orphanage that would benefit greatly from the money. You must decide whether to call the police and report the robber or do nothing and leave the robber alone.",1.03135,moral_dilemma_2A,1
2785,NA,NA,19,,Graduated High School,1629713328950,281,female,s5,German,Participants chose which action they preferred.,"Due to a computer error, participants were not allocated equally to imagine performing the different actions.",No data was saved during the experiment.,The participants completed the experiment with their eyes closed.,I don't understand what is happening here.,NA,NA,"To ensure you understood the assignment, please click on which of the following statements is true.",I don't understand what is happening here.,NA,NA,NA,NA,NA,Mon Aug 23 2021 12:07:47 GMT+0200 (Central European Summer Time),1629713267069,NA,NA,1.03135,understanding_choice,1
2785,,8112,19,,Graduated High School,1629713328950,281,female,NA,German,NA,NA,NA,NA,NA,happy,sad,How do you feel about your choice?,2,NA,NA,NA,NA,NA,Mon Aug 23 2021 12:07:47 GMT+0200 (Central European Summer Time),1629713267069,NA,NA,1.03135,emotions_fake,1
2784,NA,NA,22,,Graduated College,1629713146660,281,male,s5,"Bulgarian, German ",Animal Products,Protesting,Vaccine against Covid-19,Abortion,Political Orientation,NA,NA,Which out of these topics do you care about the most?,Political Orientation,NA,NA,NA,NA,NA,Mon Aug 23 2021 12:05:21 GMT+0200 (Mitteleuropäische Sommerzeit),1629713121057,NA,NA,0.4267166666666667,sentence_customized,1
2784,NA,NA,22,,Graduated College,1629713146660,281,male,NA,"Bulgarian, German ",NA,NA,NA,NA,NA,Strongly Disagree,Strongly Agree,NA,+3,People should not buy or eat animal products,It is alright if political protesters use violence to enforce their demands,Everybody who is medically suited to receive a vaccination against Covid-19 should get such a vaccination,Abortion should be illegal,I am politically oriented towards the left,Mon Aug 23 2021 12:05:21 GMT+0200 (Mitteleuropäische Sommerzeit),1629713121057,NA,NA,0.4267166666666667,rating_choice,1
2784,NA,NA,22,,Graduated College,1629713146660,281,male,5,"Bulgarian, German ",NA,NA,NA,NA,NA,Call the police and report the robbery.,"Nothing, and let the robber be on their way.",What do you do?,+2,NA,NA,NA,NA,NA,Mon Aug 23 2021 12:05:21 GMT+0200 (Mitteleuropäische Sommerzeit),1629713121057, <br/><br/>Approximately 60% of the other participants who agree with you on  your chosen issue chose to report the robber. <br/><br/> Approximately 85% of participants in a previous study who disagreed with you on  your chosen issue chose to let the robber go.,"Imagine you have witnessed someone rob a bank. However, you then saw them do something unexpected with the money. They donated it all to a run-down orphanage that would benefit greatly from the money. You must decide whether to call the police and report the robber or do nothing and leave the robber alone.",0.4267166666666667,moral_dilemma_2A,1
2784,NA,NA,22,,Graduated College,1629713146660,281,male,s1,"Bulgarian, German ",Participants chose which action they preferred.,"Due to a computer error, participants were not allocated equally to imagine performing the different actions.",No data was saved during the experiment.,The participants completed the experiment with their eyes closed.,I don't understand what is happening here.,NA,NA,"To ensure you understood the assignment, please click on which of the following statements is true.",Participants chose which action they preferred.,NA,NA,NA,NA,NA,Mon Aug 23 2021 12:05:21 GMT+0200 (Mitteleuropäische Sommerzeit),1629713121057,NA,NA,0.4267166666666667,understanding_choice,1
2784,,3012,22,,Graduated College,1629713146660,281,male,NA,"Bulgarian, German ",NA,NA,NA,NA,NA,happy,sad,How do you feel about your choice?,2,NA,NA,NA,NA,NA,Mon Aug 23 2021 12:05:21 GMT+0200 (Mitteleuropäische Sommerzeit),1629713121057,NA,NA,0.4267166666666667,emotions_fake,1
2780,NA,NA,24,,Graduated High School,1629709876098,281,female,s4,German,Animal Products,Protesting,Vaccine against Covid-19,Abortion,Political Orientation,NA,NA,Which out of these topics do you care about the most?,Abortion,NA,NA,NA,NA,NA,Mon Aug 23 2021 11:10:16 GMT+0200 (Mitteleuropäische Sommerzeit),1629709816875,NA,NA,0.98705,sentence_customized,1
2780,NA,NA,24,,Graduated High School,1629709876098,281,female,NA,German,NA,NA,NA,NA,NA,Strongly Disagree,Strongly Agree,NA,-5,People should not buy or eat animal products,It is alright if political protesters use violence to enforce their demands,Everybody who is medically suited to receive a vaccination against Covid-19 should get such a vaccination,Abortion should be illegal,I am politically oriented towards the left,Mon Aug 23 2021 11:10:16 GMT+0200 (Mitteleuropäische Sommerzeit),1629709816875,NA,NA,0.98705,rating_choice,1
2780,NA,NA,24,,Graduated High School,1629709876098,281,female,4,German,NA,NA,NA,NA,NA,Call the police and report the robbery.,"Nothing, and let the robber be on their way.",What do you do?,+1,NA,NA,NA,NA,NA,Mon Aug 23 2021 11:10:16 GMT+0200 (Mitteleuropäische Sommerzeit),1629709816875, <br/><br/>Approximately 60% of the other participants who agree with you on  your chosen issue chose to report the robber. <br/><br/> Approximately 85% of participants in a previous study who disagreed with you on  your chosen issue chose to let the robber go.,"Imagine you have witnessed someone rob a bank. However, you then saw them do something unexpected with the money. They donated it all to a run-down orphanage that would benefit greatly from the money. You must decide whether to call the police and report the robber or do nothing and leave the robber alone.",0.98705,moral_dilemma_2A,1
2780,NA,NA,24,,Graduated High School,1629709876098,281,female,s1,German,Participants chose which action they preferred.,"Due to a computer error, participants were not allocated equally to imagine performing the different actions.",No data was saved during the experiment.,The participants completed the experiment with their eyes closed.,I don't understand what is happening here.,NA,NA,"To ensure you understood the assignment, please click on which of the following statements is true.",Participants chose which action they preferred.,NA,NA,NA,NA,NA,Mon Aug 23 2021 11:10:16 GMT+0200 (Mitteleuropäische Sommerzeit),1629709816875,NA,NA,0.98705,understanding_choice,1
2780,,8005,24,,Graduated High School,1629709876098,281,female,NA,German,NA,NA,NA,NA,NA,happy,sad,How do you feel about your choice?,4,NA,NA,NA,NA,NA,Mon Aug 23 2021 11:10:16 GMT+0200 (Mitteleuropäische Sommerzeit),1629709816875,NA,NA,0.98705,emotions_fake,1
2779,NA,NA,23,,Graduated High School,1629672814624,281,female,s1,,Animal Products,Protesting,Vaccine against Covid-19,Abortion,Political Orientation,NA,NA,Which out of these topics do you care about the most?,Animal Products,NA,NA,NA,NA,NA,Mon Aug 23 2021 00:52:38 GMT+0200 (CEST),1629672758724,NA,NA,0.9316666666666666,sentence_customized,1
2779,NA,NA,23,,Graduated High School,1629672814624,281,female,NA,,NA,NA,NA,NA,NA,Strongly Disagree,Strongly Agree,NA,+2,People should not buy or eat animal products,It is alright if political protesters use violence to enforce their demands,Everybody who is medically suited to receive a vaccination against Covid-19 should get such a vaccination,Abortion should be illegal,I am politically oriented towards the left,Mon Aug 23 2021 00:52:38 GMT+0200 (CEST),1629672758724,NA,NA,0.9316666666666666,rating_choice,1
2779,NA,NA,23,,Graduated High School,1629672814624,281,female,6,,NA,NA,NA,NA,NA,Call the police and report the robbery.,"Nothing, and let the robber be on their way.",What do you do?,+3,NA,NA,NA,NA,NA,Mon Aug 23 2021 00:52:38 GMT+0200 (CEST),1629672758724, <br/><br/>Approximately 60% of the other participants who agree with you on  your chosen issue chose to let the robber go. <br/><br/> Approximately 85% of participants in a previous study who disagreed with you on  your chosen issue chose to report the robber.,"Imagine you have witnessed someone rob a bank. However, you then saw them do something unexpected with the money. They donated it all to a run-down orphanage that would benefit greatly from the money. You must decide whether to call the police and report the robber or do nothing and leave the robber alone.",0.9316666666666666,moral_dilemma_2A,1
2779,NA,NA,23,,Graduated High School,1629672814624,281,female,s1,,Participants chose which action they preferred.,"Due to a computer error, participants were not allocated equally to imagine performing the different actions.",No data was saved during the experiment.,The participants completed the experiment with their eyes closed.,I don't understand what is happening here.,NA,NA,"To ensure you understood the assignment, please click on which of the following statements is true.",Participants chose which action they preferred.,NA,NA,NA,NA,NA,Mon Aug 23 2021 00:52:38 GMT+0200 (CEST),1629672758724,NA,NA,0.9316666666666666,understanding_choice,1
2779,,10715,23,,Graduated High School,1629672814624,281,female,NA,,NA,NA,NA,NA,NA,happy,sad,How do you feel about your choice?,4,NA,NA,NA,NA,NA,Mon Aug 23 2021 00:52:38 GMT+0200 (CEST),1629672758724,NA,NA,0.9316666666666666,emotions_fake,1
2774,NA,NA,23,,Graduated College,1629655087557,281,male,s5,German,Animal Products,Protesting,Vaccine against Covid-19,Abortion,Political Orientation,NA,NA,Which out of these topics do you care about the most?,Political Orientation,NA,NA,NA,NA,NA,Sun Aug 22 2021 19:57:27 GMT+0200 (CEST),1629655047767,NA,NA,0.6631666666666667,sentence_customized,1
2774,NA,NA,23,,Graduated College,1629655087557,281,male,NA,German,NA,NA,NA,NA,NA,Strongly Disagree,Strongly Agree,NA,+4,People should not buy or eat animal products,It is alright if political protesters use violence to enforce their demands,Everybody who is medically suited to receive a vaccination against Covid-19 should get such a vaccination,Abortion should be illegal,I am politically oriented towards the left,Sun Aug 22 2021 19:57:27 GMT+0200 (CEST),1629655047767,NA,NA,0.6631666666666667,rating_choice,1
2774,NA,NA,23,,Graduated College,1629655087557,281,male,5,German,NA,NA,NA,NA,NA,Call the police and report the robbery.,"Nothing, and let the robber be on their way.",What do you do?,+2,NA,NA,NA,NA,NA,Sun Aug 22 2021 19:57:27 GMT+0200 (CEST),1629655047767, <br/><br/>60% of the other participants who agree with you on your chosen issue chose to report the robber.,"Imagine you have witnessed someone rob a bank. However, you then saw them do something unexpected with the money. They donated it all to a run-down orphanage that would benefit greatly from the money. You must decide whether to call the police and report the robber or do nothing and leave the robber alone.",0.6631666666666667,moral_dilemma_2A,1
2774,NA,NA,23,,Graduated College,1629655087557,281,male,s1,German,Participants chose which action they preferred.,"Due to a computer error, participants were not allocated equally to imagine performing the different actions.",No data was saved during the experiment.,The participants completed the experiment with their eyes closed.,I don't understand what is happening here.,NA,NA,"To ensure you understood the assignment, please click on which of the following statements is true.",Participants chose which action they preferred.,NA,NA,NA,NA,NA,Sun Aug 22 2021 19:57:27 GMT+0200 (CEST),1629655047767,NA,NA,0.6631666666666667,understanding_choice,1
2774,,4962,23,,Graduated College,1629655087557,281,male,NA,German,NA,NA,NA,NA,NA,happy,sad,How do you feel about your choice?,2,NA,NA,NA,NA,NA,Sun Aug 22 2021 19:57:27 GMT+0200 (CEST),1629655047767,NA,NA,0.6631666666666667,emotions_fake,1
2772,NA,NA,24,,Graduated College,1629653761438,281,female,s5,German,Animal Products,Protesting,Vaccine against Covid-19,Abortion,Political Orientation,NA,NA,Which out of these topics do you care about the most?,Political Orientation,NA,NA,NA,NA,NA,Sun Aug 22 2021 19:35:19 GMT+0200 (CEST),1629653719952,NA,NA,0.6914333333333333,sentence_customized,1
2772,NA,NA,24,,Graduated College,1629653761438,281,female,NA,German,NA,NA,NA,NA,NA,Strongly Disagree,Strongly Agree,NA,+5,People should not buy or eat animal products,It is alright if political protesters use violence to enforce their demands,Everybody who is medically suited to receive a vaccination against Covid-19 should get such a vaccination,Abortion should be illegal,I am politically oriented towards the left,Sun Aug 22 2021 19:35:19 GMT+0200 (CEST),1629653719952,NA,NA,0.6914333333333333,rating_choice,1
2772,NA,NA,24,,Graduated College,1629653761438,281,female,6,German,NA,NA,NA,NA,NA,Call the police and report the robbery.,"Nothing, and let the robber be on their way.",What do you do?,+3,NA,NA,NA,NA,NA,Sun Aug 22 2021 19:35:19 GMT+0200 (CEST),1629653719952, <br/><br/>Approximately 60% of the other participants who agree with you on  your chosen issue chose to report the robber. <br/><br/> Approximately 85% of participants in a previous study who disagreed with you on  your chosen issue chose to let the robber go.,"Imagine you have witnessed someone rob a bank. However, you then saw them do something unexpected with the money. They donated it all to a run-down orphanage that would benefit greatly from the money. You must decide whether to call the police and report the robber or do nothing and leave the robber alone.",0.6914333333333333,moral_dilemma_2A,1
2772,NA,NA,24,,Graduated College,1629653761438,281,female,s1,German,Participants chose which action they preferred.,"Due to a computer error, participants were not allocated equally to imagine performing the different actions.",No data was saved during the experiment.,The participants completed the experiment with their eyes closed.,I don't understand what is happening here.,NA,NA,"To ensure you understood the assignment, please click on which of the following statements is true.",Participants chose which action they preferred.,NA,NA,NA,NA,NA,Sun Aug 22 2021 19:35:19 GMT+0200 (CEST),1629653719952,NA,NA,0.6914333333333333,understanding_choice,1
2772,,7017,24,,Graduated College,1629653761438,281,female,NA,German,NA,NA,NA,NA,NA,happy,sad,How do you feel about your choice?,2,NA,NA,NA,NA,NA,Sun Aug 22 2021 19:35:19 GMT+0200 (CEST),1629653719952,NA,NA,0.6914333333333333,emotions_fake,1
2768,NA,NA,25,,Higher Degree,1629637842063,281,male,s5,German,Animal Products,Protesting,Vaccine against Covid-19,Abortion,Political Orientation,NA,NA,Which out of these topics do you care about the most?,Political Orientation,NA,NA,NA,NA,NA,Sun Aug 22 2021 15:10:23 GMT+0200 (CEST),1629637823727,NA,NA,0.3056,sentence_customized,1
2768,NA,NA,25,,Higher Degree,1629637842063,281,male,NA,German,NA,NA,NA,NA,NA,Strongly Disagree,Strongly Agree,NA,-3,People should not buy or eat animal products,It is alright if political protesters use violence to enforce their demands,Everybody who is medically suited to receive a vaccination against Covid-19 should get such a vaccination,Abortion should be illegal,I am politically oriented towards the left,Sun Aug 22 2021 15:10:23 GMT+0200 (CEST),1629637823727,NA,NA,0.3056,rating_choice,1
2768,NA,NA,25,,Higher Degree,1629637842063,281,male,1,German,NA,NA,NA,NA,NA,Call the police and report the robbery.,"Nothing, and let the robber be on their way.",What do you do?,-3,NA,NA,NA,NA,NA,Sun Aug 22 2021 15:10:23 GMT+0200 (CEST),1629637823727, <br/><br/>Approximately 60% of the other participants who agree with you on your chosen issue chose to let the robber go.,"Imagine you have witnessed someone rob a bank. However, you then saw them do something unexpected with the money. They donated it all to a run-down orphanage that would benefit greatly from the money. You must decide whether to call the police and report the robber or do nothing and leave the robber alone.",0.3056,moral_dilemma_2A,1
2768,NA,NA,25,,Higher Degree,1629637842063,281,male,s1,German,Participants chose which action they preferred.,"Due to a computer error, participants were not allocated equally to imagine performing the different actions.",No data was saved during the experiment.,The participants completed the experiment with their eyes closed.,I don't understand what is happening here.,NA,NA,"To ensure you understood the assignment, please click on which of the following statements is true.",Participants chose which action they preferred.,NA,NA,NA,NA,NA,Sun Aug 22 2021 15:10:23 GMT+0200 (CEST),1629637823727,NA,NA,0.3056,understanding_choice,1
2768,,24084,25,,Higher Degree,1629637842063,281,male,NA,German,NA,NA,NA,NA,NA,happy,sad,How do you feel about your choice?,2,NA,NA,NA,NA,NA,Sun Aug 22 2021 15:10:23 GMT+0200 (CEST),1629637823727,NA,NA,0.3056,emotions_fake,1
2767,NA,NA,,,,1629635218531,281,,s4,,Animal Products,Protesting,Vaccine against Covid-19,Abortion,Political Orientation,NA,NA,Which out of these topics do you care about the most?,Abortion,NA,NA,NA,NA,NA,Sun Aug 22 2021 14:26:53 GMT+0200 (Midden-Europese zomertijd),1629635213367,NA,NA,0.08606666666666667,sentence_customized,1
2767,NA,NA,,,,1629635218531,281,,NA,,NA,NA,NA,NA,NA,Strongly Disagree,Strongly Agree,NA,-5,People should not buy or eat animal products,It is alright if political protesters use violence to enforce their demands,Everybody who is medically suited to receive a vaccination against Covid-19 should get such a vaccination,Abortion should be illegal,I am politically oriented towards the left,Sun Aug 22 2021 14:26:53 GMT+0200 (Midden-Europese zomertijd),1629635213367,NA,NA,0.08606666666666667,rating_choice,1
2767,NA,NA,,,,1629635218531,281,,6,,NA,NA,NA,NA,NA,Call the police and report the robbery.,"Nothing, and let the robber be on their way.",What do you do?,+3,NA,NA,NA,NA,NA,Sun Aug 22 2021 14:26:53 GMT+0200 (Midden-Europese zomertijd),1629635213367, <br/><br/>Approximately 60% of the other participants who agree with you on  your chosen issue chose to let the robber go. <br/><br/> Approximately 85% of participants in a previous study who disagreed with you on  your chosen issue chose to report the robber.,"Imagine you have witnessed someone rob a bank. However, you then saw them do something unexpected with the money. They donated it all to a run-down orphanage that would benefit greatly from the money. You must decide whether to call the police and report the robber or do nothing and leave the robber alone.",0.08606666666666667,moral_dilemma_2A,1
2767,NA,NA,,,,1629635218531,281,,s1,,Participants chose which action they preferred.,"Due to a computer error, participants were not allocated equally to imagine performing the different actions.",No data was saved during the experiment.,The participants completed the experiment with their eyes closed.,I don't understand what is happening here.,NA,NA,"To ensure you understood the assignment, please click on which of the following statements is true.",Participants chose which action they preferred.,NA,NA,NA,NA,NA,Sun Aug 22 2021 14:26:53 GMT+0200 (Midden-Europese zomertijd),1629635213367,NA,NA,0.08606666666666667,understanding_choice,1
2767,,2840,,,,1629635218531,281,,NA,,NA,NA,NA,NA,NA,happy,sad,How do you feel about your choice?,1,NA,NA,NA,NA,NA,Sun Aug 22 2021 14:26:53 GMT+0200 (Midden-Europese zomertijd),1629635213367,NA,NA,0.08606666666666667,emotions_fake,1
2766,NA,NA,23,,Graduated College,1629633958360,281,female,s1,German,Animal Products,Protesting,Vaccine against Covid-19,Abortion,Political Orientation,NA,NA,Which out of these topics do you care about the most?,Animal Products,NA,NA,NA,NA,NA,Sun Aug 22 2021 14:05:17 GMT+0200 (CEST),1629633917741,NA,NA,0.6769833333333334,sentence_customized,1
2766,NA,NA,23,,Graduated College,1629633958360,281,female,NA,German,NA,NA,NA,NA,NA,Strongly Disagree,Strongly Agree,NA,+3,People should not buy or eat animal products,It is alright if political protesters use violence to enforce their demands,Everybody who is medically suited to receive a vaccination against Covid-19 should get such a vaccination,Abortion should be illegal,I am politically oriented towards the left,Sun Aug 22 2021 14:05:17 GMT+0200 (CEST),1629633917741,NA,NA,0.6769833333333334,rating_choice,1
2766,NA,NA,23,,Graduated College,1629633958360,281,female,5,German,NA,NA,NA,NA,NA,Call the police and report the robbery.,"Nothing, and let the robber be on their way.",What do you do?,+2,NA,NA,NA,NA,NA,Sun Aug 22 2021 14:05:17 GMT+0200 (CEST),1629633917741, <br/><br/>Approximately 60% of the other participants who agree with you on your chosen issue chose to let the robber go.,"Imagine you have witnessed someone rob a bank. However, you then saw them do something unexpected with the money. They donated it all to a run-down orphanage that would benefit greatly from the money. You must decide whether to call the police and report the robber or do nothing and leave the robber alone.",0.6769833333333334,moral_dilemma_2A,1
2766,NA,NA,23,,Graduated College,1629633958360,281,female,s5,German,Participants chose which action they preferred.,"Due to a computer error, participants were not allocated equally to imagine performing the different actions.",No data was saved during the experiment.,The participants completed the experiment with their eyes closed.,I don't understand what is happening here.,NA,NA,"To ensure you understood the assignment, please click on which of the following statements is true.",I don't understand what is happening here.,NA,NA,NA,NA,NA,Sun Aug 22 2021 14:05:17 GMT+0200 (CEST),1629633917741,NA,NA,0.6769833333333334,understanding_choice,1
2766,,12066,23,,Graduated College,1629633958360,281,female,NA,German,NA,NA,NA,NA,NA,happy,sad,How do you feel about your choice?,4,NA,NA,NA,NA,NA,Sun Aug 22 2021 14:05:17 GMT+0200 (CEST),1629633917741,NA,NA,0.6769833333333334,emotions_fake,1
2765,NA,NA,23,,Graduated College,1629633617159,281,male,s5,czech,Animal Products,Protesting,Vaccine against Covid-19,Abortion,Political Orientation,NA,NA,Which out of these topics do you care about the most?,Political Orientation,NA,NA,NA,NA,NA,Sun Aug 22 2021 13:54:45 GMT+0200 (Středoevropský letní čas),1629633285063,NA,NA,5.534933333333333,sentence_customized,1
2765,NA,NA,23,,Graduated College,1629633617159,281,male,NA,czech,NA,NA,NA,NA,NA,Strongly Disagree,Strongly Agree,NA,+2,People should not buy or eat animal products,It is alright if political protesters use violence to enforce their demands,Everybody who is medically suited to receive a vaccination against Covid-19 should get such a vaccination,Abortion should be illegal,I am politically oriented towards the left,Sun Aug 22 2021 13:54:45 GMT+0200 (Středoevropský letní čas),1629633285063,NA,NA,5.534933333333333,rating_choice,1
2765,NA,NA,23,,Graduated College,1629633617159,281,male,1,czech,NA,NA,NA,NA,NA,Call the police and report the robbery.,"Nothing, and let the robber be on their way.",What do you do?,-3,NA,NA,NA,NA,NA,Sun Aug 22 2021 13:54:45 GMT+0200 (Středoevropský letní čas),1629633285063, <br/><br/>Approximately 60% of the other participants who agree with you on  your chosen issue chose to report the robber. <br/><br/> Approximately 85% of participants in a previous study who disagreed with you on  your chosen issue chose to let the robber go.,"Imagine you have witnessed someone rob a bank. However, you then saw them do something unexpected with the money. They donated it all to a run-down orphanage that would benefit greatly from the money. You must decide whether to call the police and report the robber or do nothing and leave the robber alone.",5.534933333333333,moral_dilemma_2A,1
2765,NA,NA,23,,Graduated College,1629633617159,281,male,s1,czech,Participants chose which action they preferred.,"Due to a computer error, participants were not allocated equally to imagine performing the different actions.",No data was saved during the experiment.,The participants completed the experiment with their eyes closed.,I don't understand what is happening here.,NA,NA,"To ensure you understood the assignment, please click on which of the following statements is true.",Participants chose which action they preferred.,NA,NA,NA,NA,NA,Sun Aug 22 2021 13:54:45 GMT+0200 (Středoevropský letní čas),1629633285063,NA,NA,5.534933333333333,understanding_choice,1
2765,,6331,23,,Graduated College,1629633617159,281,male,NA,czech,NA,NA,NA,NA,NA,happy,sad,How do you feel about your choice?,2,NA,NA,NA,NA,NA,Sun Aug 22 2021 13:54:45 GMT+0200 (Středoevropský letní čas),1629633285063,NA,NA,5.534933333333333,emotions_fake,1
2764,NA,NA,23,,Higher Degree,1629633681372,281,female,s1,German,Animal Products,Protesting,Vaccine against Covid-19,Abortion,Political Orientation,NA,NA,Which out of these topics do you care about the most?,Animal Products,NA,NA,NA,NA,NA,Sun Aug 22 2021 14:01:10 GMT+0200 (Central European Summer Time),1629633670383,NA,NA,0.18315,sentence_customized,1
2764,NA,NA,23,,Higher Degree,1629633681372,281,female,NA,German,NA,NA,NA,NA,NA,Strongly Disagree,Strongly Agree,NA,+5,People should not buy or eat animal products,It is alright if political protesters use violence to enforce their demands,Everybody who is medically suited to receive a vaccination against Covid-19 should get such a vaccination,Abortion should be illegal,I am politically oriented towards the left,Sun Aug 22 2021 14:01:10 GMT+0200 (Central European Summer Time),1629633670383,NA,NA,0.18315,rating_choice,1
2764,NA,NA,23,,Higher Degree,1629633681372,281,female,5,German,NA,NA,NA,NA,NA,Call the police and report the robbery.,"Nothing, and let the robber be on their way.",What do you do?,+2,NA,NA,NA,NA,NA,Sun Aug 22 2021 14:01:10 GMT+0200 (Central European Summer Time),1629633670383, <br/><br/>Approximately 60% of the other participants who agree with you on  your chosen issue chose to report the robber. <br/><br/> Approximately 85% of participants in a previous study who disagreed with you on  your chosen issue chose to let the robber go.,"Imagine you have witnessed someone rob a bank. However, you then saw them do something unexpected with the money. They donated it all to a run-down orphanage that would benefit greatly from the money. You must decide whether to call the police and report the robber or do nothing and leave the robber alone.",0.18315,moral_dilemma_2A,1
2764,NA,NA,23,,Higher Degree,1629633681372,281,female,s1,German,Participants chose which action they preferred.,"Due to a computer error, participants were not allocated equally to imagine performing the different actions.",No data was saved during the experiment.,The participants completed the experiment with their eyes closed.,I don't understand what is happening here.,NA,NA,"To ensure you understood the assignment, please click on which of the following statements is true.",Participants chose which action they preferred.,NA,NA,NA,NA,NA,Sun Aug 22 2021 14:01:10 GMT+0200 (Central European Summer Time),1629633670383,NA,NA,0.18315,understanding_choice,1
2764,,8088,23,,Higher Degree,1629633681372,281,female,NA,German,NA,NA,NA,NA,NA,happy,sad,How do you feel about your choice?,3,NA,NA,NA,NA,NA,Sun Aug 22 2021 14:01:10 GMT+0200 (Central European Summer Time),1629633670383,NA,NA,0.18315,emotions_fake,1
2762,NA,NA,23,,Graduated High School,1629631753618,281,male,s2,German,Animal Products,Protesting,Vaccine against Covid-19,Abortion,Political Orientation,NA,NA,Which out of these topics do you care about the most?,Protesting,NA,NA,NA,NA,NA,Sun Aug 22 2021 13:28:20 GMT+0200 (Central European Summer Time),1629631700132,NA,NA,0.8914333333333333,sentence_customized,1
2762,NA,NA,23,,Graduated High School,1629631753618,281,male,NA,German,NA,NA,NA,NA,NA,Strongly Disagree,Strongly Agree,NA,-5,People should not buy or eat animal products,It is alright if political protesters use violence to enforce their demands,Everybody who is medically suited to receive a vaccination against Covid-19 should get such a vaccination,Abortion should be illegal,I am politically oriented towards the left,Sun Aug 22 2021 13:28:20 GMT+0200 (Central European Summer Time),1629631700132,NA,NA,0.8914333333333333,rating_choice,1
2762,NA,NA,23,,Graduated High School,1629631753618,281,male,6,German,NA,NA,NA,NA,NA,Call the police and report the robbery.,"Nothing, and let the robber be on their way.",What do you do?,+3,NA,NA,NA,NA,NA,Sun Aug 22 2021 13:28:20 GMT+0200 (Central European Summer Time),1629631700132, <br/><br/>Approximately 60% of the other participants who agree with you on your chosen issue chose to let the robber go.,"Imagine you have witnessed someone rob a bank. However, you then saw them do something unexpected with the money. They donated it all to a run-down orphanage that would benefit greatly from the money. You must decide whether to call the police and report the robber or do nothing and leave the robber alone.",0.8914333333333333,moral_dilemma_2A,1
2762,NA,NA,23,,Graduated High School,1629631753618,281,male,s1,German,Participants chose which action they preferred.,"Due to a computer error, participants were not allocated equally to imagine performing the different actions.",No data was saved during the experiment.,The participants completed the experiment with their eyes closed.,I don't understand what is happening here.,NA,NA,"To ensure you understood the assignment, please click on which of the following statements is true.",Participants chose which action they preferred.,NA,NA,NA,NA,NA,Sun Aug 22 2021 13:28:20 GMT+0200 (Central European Summer Time),1629631700132,NA,NA,0.8914333333333333,understanding_choice,1
2762,,17363,23,,Graduated High School,1629631753618,281,male,NA,German,NA,NA,NA,NA,NA,happy,sad,How do you feel about your choice?,2,NA,NA,NA,NA,NA,Sun Aug 22 2021 13:28:20 GMT+0200 (Central European Summer Time),1629631700132,NA,NA,0.8914333333333333,emotions_fake,1
2761,NA,NA,20,,Graduated High School,1629623892455,281,female,s4,Deutsch ,Animal Products,Protesting,Vaccine against Covid-19,Abortion,Political Orientation,NA,NA,Which out of these topics do you care about the most?,Abortion,NA,NA,NA,NA,NA,Sun Aug 22 2021 11:17:53 GMT+0200 (CEST),1629623873718,NA,NA,0.31228333333333336,sentence_customized,1
2761,NA,NA,20,,Graduated High School,1629623892455,281,female,NA,Deutsch ,NA,NA,NA,NA,NA,Strongly Disagree,Strongly Agree,NA,-5,People should not buy or eat animal products,It is alright if political protesters use violence to enforce their demands,Everybody who is medically suited to receive a vaccination against Covid-19 should get such a vaccination,Abortion should be illegal,I am politically oriented towards the left,Sun Aug 22 2021 11:17:53 GMT+0200 (CEST),1629623873718,NA,NA,0.31228333333333336,rating_choice,1
2761,NA,NA,20,,Graduated High School,1629623892455,281,female,6,Deutsch ,NA,NA,NA,NA,NA,Call the police and report the robbery.,"Nothing, and let the robber be on their way.",What do you do?,+3,NA,NA,NA,NA,NA,Sun Aug 22 2021 11:17:53 GMT+0200 (CEST),1629623873718, <br/><br/>Approximately 60% of the other participants who agree with you on your chosen issue chose to let the robber go.,"Imagine you have witnessed someone rob a bank. However, you then saw them do something unexpected with the money. They donated it all to a run-down orphanage that would benefit greatly from the money. You must decide whether to call the police and report the robber or do nothing and leave the robber alone.",0.31228333333333336,moral_dilemma_2A,1
2761,NA,NA,20,,Graduated High School,1629623892455,281,female,s1,Deutsch ,Participants chose which action they preferred.,"Due to a computer error, participants were not allocated equally to imagine performing the different actions.",No data was saved during the experiment.,The participants completed the experiment with their eyes closed.,I don't understand what is happening here.,NA,NA,"To ensure you understood the assignment, please click on which of the following statements is true.",Participants chose which action they preferred.,NA,NA,NA,NA,NA,Sun Aug 22 2021 11:17:53 GMT+0200 (CEST),1629623873718,NA,NA,0.31228333333333336,understanding_choice,1
2761,,3446,20,,Graduated High School,1629623892455,281,female,NA,Deutsch ,NA,NA,NA,NA,NA,happy,sad,How do you feel about your choice?,2,NA,NA,NA,NA,NA,Sun Aug 22 2021 11:17:53 GMT+0200 (CEST),1629623873718,NA,NA,0.31228333333333336,emotions_fake,1
2760,NA,NA,17,Not yet graduated,Graduated High School,1629623100908,281,male,s5,German,Animal Products,Protesting,Vaccine against Covid-19,Abortion,Political Orientation,NA,NA,Which out of these topics do you care about the most?,Political Orientation,NA,NA,NA,NA,NA,Sun Aug 22 2021 11:04:41 GMT+0200 (CEST),1629623081815,NA,NA,0.31821666666666665,sentence_customized,1
2760,NA,NA,17,Not yet graduated,Graduated High School,1629623100908,281,male,NA,German,NA,NA,NA,NA,NA,Strongly Disagree,Strongly Agree,NA,+3,People should not buy or eat animal products,It is alright if political protesters use violence to enforce their demands,Everybody who is medically suited to receive a vaccination against Covid-19 should get such a vaccination,Abortion should be illegal,I am politically oriented towards the left,Sun Aug 22 2021 11:04:41 GMT+0200 (CEST),1629623081815,NA,NA,0.31821666666666665,rating_choice,1
2760,NA,NA,17,Not yet graduated,Graduated High School,1629623100908,281,male,5,German,NA,NA,NA,NA,NA,Call the police and report the robbery.,"Nothing, and let the robber be on their way.",What do you do?,+2,NA,NA,NA,NA,NA,Sun Aug 22 2021 11:04:41 GMT+0200 (CEST),1629623081815, <br/><br/>Approximately 60% of the other participants who agree with you on  your chosen issue chose to report the robber. <br/><br/> Approximately 85% of participants in a previous study who disagreed with you on  your chosen issue chose to let the robber go.,"Imagine you have witnessed someone rob a bank. However, you then saw them do something unexpected with the money. They donated it all to a run-down orphanage that would benefit greatly from the money. You must decide whether to call the police and report the robber or do nothing and leave the robber alone.",0.31821666666666665,moral_dilemma_2A,1
2760,NA,NA,17,Not yet graduated,Graduated High School,1629623100908,281,male,s1,German,Participants chose which action they preferred.,"Due to a computer error, participants were not allocated equally to imagine performing the different actions.",No data was saved during the experiment.,The participants completed the experiment with their eyes closed.,I don't understand what is happening here.,NA,NA,"To ensure you understood the assignment, please click on which of the following statements is true.",Participants chose which action they preferred.,NA,NA,NA,NA,NA,Sun Aug 22 2021 11:04:41 GMT+0200 (CEST),1629623081815,NA,NA,0.31821666666666665,understanding_choice,1
2760,,6604,17,Not yet graduated,Graduated High School,1629623100908,281,male,NA,German,NA,NA,NA,NA,NA,happy,sad,How do you feel about your choice?,1,NA,NA,NA,NA,NA,Sun Aug 22 2021 11:04:41 GMT+0200 (CEST),1629623081815,NA,NA,0.31821666666666665,emotions_fake,1
2759,NA,NA,23,,Higher Degree,1629622884194,281,female,s3,"German, English, Kreol",Animal Products,Protesting,Vaccine against Covid-19,Abortion,Political Orientation,NA,NA,Which out of these topics do you care about the most?,Vaccine against Covid-19,NA,NA,NA,NA,NA,Sun Aug 22 2021 11:00:09 GMT+0200 (Mitteleuropäische Sommerzeit),1629622809859,NA,NA,1.2389166666666667,sentence_customized,1
2759,NA,NA,23,,Higher Degree,1629622884194,281,female,NA,"German, English, Kreol",NA,NA,NA,NA,NA,Strongly Disagree,Strongly Agree,NA,+4,People should not buy or eat animal products,It is alright if political protesters use violence to enforce their demands,Everybody who is medically suited to receive a vaccination against Covid-19 should get such a vaccination,Abortion should be illegal,I am politically oriented towards the left,Sun Aug 22 2021 11:00:09 GMT+0200 (Mitteleuropäische Sommerzeit),1629622809859,NA,NA,1.2389166666666667,rating_choice,1
2759,NA,NA,23,,Higher Degree,1629622884194,281,female,4,"German, English, Kreol",NA,NA,NA,NA,NA,Call the police and report the robbery.,"Nothing, and let the robber be on their way.",What do you do?,+1,NA,NA,NA,NA,NA,Sun Aug 22 2021 11:00:09 GMT+0200 (Mitteleuropäische Sommerzeit),1629622809859, <br/><br/>Approximately 60% of the other participants who agree with you on  your chosen issue chose to let the robber go. <br/><br/> Approximately 85% of participants in a previous study who disagreed with you on  your chosen issue chose to report the robber.,"Imagine you have witnessed someone rob a bank. However, you then saw them do something unexpected with the money. They donated it all to a run-down orphanage that would benefit greatly from the money. You must decide whether to call the police and report the robber or do nothing and leave the robber alone.",1.2389166666666667,moral_dilemma_2A,1
2759,NA,NA,23,,Higher Degree,1629622884194,281,female,s1,"German, English, Kreol",Participants chose which action they preferred.,"Due to a computer error, participants were not allocated equally to imagine performing the different actions.",No data was saved during the experiment.,The participants completed the experiment with their eyes closed.,I don't understand what is happening here.,NA,NA,"To ensure you understood the assignment, please click on which of the following statements is true.",Participants chose which action they preferred.,NA,NA,NA,NA,NA,Sun Aug 22 2021 11:00:09 GMT+0200 (Mitteleuropäische Sommerzeit),1629622809859,NA,NA,1.2389166666666667,understanding_choice,1
2759,,3237,23,,Higher Degree,1629622884194,281,female,NA,"German, English, Kreol",NA,NA,NA,NA,NA,happy,sad,How do you feel about your choice?,5,NA,NA,NA,NA,NA,Sun Aug 22 2021 11:00:09 GMT+0200 (Mitteleuropäische Sommerzeit),1629622809859,NA,NA,1.2389166666666667,emotions_fake,1
2756,NA,NA,18,,Graduated High School,1629616506475,281,female,s1,German,Animal Products,Protesting,Vaccine against Covid-19,Abortion,Political Orientation,NA,NA,Which out of these topics do you care about the most?,Animal Products,NA,NA,NA,NA,NA,Sun Aug 22 2021 09:14:05 GMT+0200 (Mitteleuropäische Sommerzeit),1629616445955,NA,NA,1.0086666666666666,sentence_customized,1
2756,NA,NA,18,,Graduated High School,1629616506475,281,female,NA,German,NA,NA,NA,NA,NA,Strongly Disagree,Strongly Agree,NA,+4,People should not buy or eat animal products,It is alright if political protesters use violence to enforce their demands,Everybody who is medically suited to receive a vaccination against Covid-19 should get such a vaccination,Abortion should be illegal,I am politically oriented towards the left,Sun Aug 22 2021 09:14:05 GMT+0200 (Mitteleuropäische Sommerzeit),1629616445955,NA,NA,1.0086666666666666,rating_choice,1
2756,NA,NA,18,,Graduated High School,1629616506475,281,female,6,German,NA,NA,NA,NA,NA,Call the police and report the robbery.,"Nothing, and let the robber be on their way.",What do you do?,+3,NA,NA,NA,NA,NA,Sun Aug 22 2021 09:14:05 GMT+0200 (Mitteleuropäische Sommerzeit),1629616445955, <br/><br/>Approximately 60% of the other participants who agree with you on  your chosen issue chose to report the robber. <br/><br/> Approximately 85% of participants in a previous study who disagreed with you on  your chosen issue chose to let the robber go.,"Imagine you have witnessed someone rob a bank. However, you then saw them do something unexpected with the money. They donated it all to a run-down orphanage that would benefit greatly from the money. You must decide whether to call the police and report the robber or do nothing and leave the robber alone.",1.0086666666666666,moral_dilemma_2A,1
2756,NA,NA,18,,Graduated High School,1629616506475,281,female,s5,German,Participants chose which action they preferred.,"Due to a computer error, participants were not allocated equally to imagine performing the different actions.",No data was saved during the experiment.,The participants completed the experiment with their eyes closed.,I don't understand what is happening here.,NA,NA,"To ensure you understood the assignment, please click on which of the following statements is true.",I don't understand what is happening here.,NA,NA,NA,NA,NA,Sun Aug 22 2021 09:14:05 GMT+0200 (Mitteleuropäische Sommerzeit),1629616445955,NA,NA,1.0086666666666666,understanding_choice,1
2756,,3687,18,,Graduated High School,1629616506475,281,female,NA,German,NA,NA,NA,NA,NA,happy,sad,How do you feel about your choice?,2,NA,NA,NA,NA,NA,Sun Aug 22 2021 09:14:05 GMT+0200 (Mitteleuropäische Sommerzeit),1629616445955,NA,NA,1.0086666666666666,emotions_fake,1
2755,NA,NA,22,,Graduated College,1629613735521,281,female,s1,German ,Animal Products,Protesting,Vaccine against Covid-19,Abortion,Political Orientation,NA,NA,Which out of these topics do you care about the most?,Animal Products,NA,NA,NA,NA,NA,Sun Aug 22 2021 08:28:28 GMT+0200 (Mitteleuropäische Sommerzeit),1629613708452,NA,NA,0.45115,sentence_customized,1
2755,NA,NA,22,,Graduated College,1629613735521,281,female,NA,German ,NA,NA,NA,NA,NA,Strongly Disagree,Strongly Agree,NA,-1,People should not buy or eat animal products,It is alright if political protesters use violence to enforce their demands,Everybody who is medically suited to receive a vaccination against Covid-19 should get such a vaccination,Abortion should be illegal,I am politically oriented towards the left,Sun Aug 22 2021 08:28:28 GMT+0200 (Mitteleuropäische Sommerzeit),1629613708452,NA,NA,0.45115,rating_choice,1
2755,NA,NA,22,,Graduated College,1629613735521,281,female,5,German ,NA,NA,NA,NA,NA,Call the police and report the robbery.,"Nothing, and let the robber be on their way.",What do you do?,+2,NA,NA,NA,NA,NA,Sun Aug 22 2021 08:28:28 GMT+0200 (Mitteleuropäische Sommerzeit),1629613708452, <br/><br/>Approximately 60% of the other participants who agree with you on  your chosen issue chose to let the robber go. <br/><br/> Approximately 85% of participants in a previous study who disagreed with you on  your chosen issue chose to report the robber.,"Imagine you have witnessed someone rob a bank. However, you then saw them do something unexpected with the money. They donated it all to a run-down orphanage that would benefit greatly from the money. You must decide whether to call the police and report the robber or do nothing and leave the robber alone.",0.45115,moral_dilemma_2A,1
2755,NA,NA,22,,Graduated College,1629613735521,281,female,s1,German ,Participants chose which action they preferred.,"Due to a computer error, participants were not allocated equally to imagine performing the different actions.",No data was saved during the experiment.,The participants completed the experiment with their eyes closed.,I don't understand what is happening here.,NA,NA,"To ensure you understood the assignment, please click on which of the following statements is true.",Participants chose which action they preferred.,NA,NA,NA,NA,NA,Sun Aug 22 2021 08:28:28 GMT+0200 (Mitteleuropäische Sommerzeit),1629613708452,NA,NA,0.45115,understanding_choice,1
2755,,7483,22,,Graduated College,1629613735521,281,female,NA,German ,NA,NA,NA,NA,NA,happy,sad,How do you feel about your choice?,3,NA,NA,NA,NA,NA,Sun Aug 22 2021 08:28:28 GMT+0200 (Mitteleuropäische Sommerzeit),1629613708452,NA,NA,0.45115,emotions_fake,1
2753,NA,NA,23,,Graduated College,1629597974164,281,female,s5,German,Animal Products,Protesting,Vaccine against Covid-19,Abortion,Political Orientation,NA,NA,Which out of these topics do you care about the most?,Political Orientation,NA,NA,NA,NA,NA,Sun Aug 22 2021 04:05:36 GMT+0200 (Central European Summer Time),1629597936234,NA,NA,0.6321666666666667,sentence_customized,1
2753,NA,NA,23,,Graduated College,1629597974164,281,female,NA,German,NA,NA,NA,NA,NA,Strongly Disagree,Strongly Agree,NA,+5,People should not buy or eat animal products,It is alright if political protesters use violence to enforce their demands,Everybody who is medically suited to receive a vaccination against Covid-19 should get such a vaccination,Abortion should be illegal,I am politically oriented towards the left,Sun Aug 22 2021 04:05:36 GMT+0200 (Central European Summer Time),1629597936234,NA,NA,0.6321666666666667,rating_choice,1
2753,NA,NA,23,,Graduated College,1629597974164,281,female,6,German,NA,NA,NA,NA,NA,Call the police and report the robbery.,"Nothing, and let the robber be on their way.",What do you do?,+3,NA,NA,NA,NA,NA,Sun Aug 22 2021 04:05:36 GMT+0200 (Central European Summer Time),1629597936234, <br/><br/>Approximately 60% of the other participants who agree with you on  your chosen issue chose to report the robber. <br/><br/> Approximately 85% of participants in a previous study who disagreed with you on  your chosen issue chose to let the robber go.,"Imagine you have witnessed someone rob a bank. However, you then saw them do something unexpected with the money. They donated it all to a run-down orphanage that would benefit greatly from the money. You must decide whether to call the police and report the robber or do nothing and leave the robber alone.",0.6321666666666667,moral_dilemma_2A,1
2753,NA,NA,23,,Graduated College,1629597974164,281,female,s5,German,Participants chose which action they preferred.,"Due to a computer error, participants were not allocated equally to imagine performing the different actions.",No data was saved during the experiment.,The participants completed the experiment with their eyes closed.,I don't understand what is happening here.,NA,NA,"To ensure you understood the assignment, please click on which of the following statements is true.",I don't understand what is happening here.,NA,NA,NA,NA,NA,Sun Aug 22 2021 04:05:36 GMT+0200 (Central European Summer Time),1629597936234,NA,NA,0.6321666666666667,understanding_choice,1
2753,,18896,23,,Graduated College,1629597974164,281,female,NA,German,NA,NA,NA,NA,NA,happy,sad,How do you feel about your choice?,1,NA,NA,NA,NA,NA,Sun Aug 22 2021 04:05:36 GMT+0200 (Central European Summer Time),1629597936234,NA,NA,0.6321666666666667,emotions_fake,1
2752,NA,NA,20,,Graduated High School,1629590512693,281,female,s3,,Animal Products,Protesting,Vaccine against Covid-19,Abortion,Political Orientation,NA,NA,Which out of these topics do you care about the most?,Vaccine against Covid-19,NA,NA,NA,NA,NA,Sat Aug 21 2021 20:01:32 GMT-0400 (EDT),1629590492841,NA,NA,0.33086666666666664,sentence_customized,1
2752,NA,NA,20,,Graduated High School,1629590512693,281,female,NA,,NA,NA,NA,NA,NA,Strongly Disagree,Strongly Agree,NA,+5,People should not buy or eat animal products,It is alright if political protesters use violence to enforce their demands,Everybody who is medically suited to receive a vaccination against Covid-19 should get such a vaccination,Abortion should be illegal,I am politically oriented towards the left,Sat Aug 21 2021 20:01:32 GMT-0400 (EDT),1629590492841,NA,NA,0.33086666666666664,rating_choice,1
2752,NA,NA,20,,Graduated High School,1629590512693,281,female,5,,NA,NA,NA,NA,NA,Call the police and report the robbery.,"Nothing, and let the robber be on their way.",What do you do?,+2,NA,NA,NA,NA,NA,Sat Aug 21 2021 20:01:32 GMT-0400 (EDT),1629590492841, <br/><br/>Approximately 60% of the other participants who agree with you on your chosen issue chose to let the robber go.,"Imagine you have witnessed someone rob a bank. However, you then saw them do something unexpected with the money. They donated it all to a run-down orphanage that would benefit greatly from the money. You must decide whether to call the police and report the robber or do nothing and leave the robber alone.",0.33086666666666664,moral_dilemma_2A,1
2752,NA,NA,20,,Graduated High School,1629590512693,281,female,s1,,Participants chose which action they preferred.,"Due to a computer error, participants were not allocated equally to imagine performing the different actions.",No data was saved during the experiment.,The participants completed the experiment with their eyes closed.,I don't understand what is happening here.,NA,NA,"To ensure you understood the assignment, please click on which of the following statements is true.",Participants chose which action they preferred.,NA,NA,NA,NA,NA,Sat Aug 21 2021 20:01:32 GMT-0400 (EDT),1629590492841,NA,NA,0.33086666666666664,understanding_choice,1
2752,,2900,20,,Graduated High School,1629590512693,281,female,NA,,NA,NA,NA,NA,NA,happy,sad,How do you feel about your choice?,3,NA,NA,NA,NA,NA,Sat Aug 21 2021 20:01:32 GMT-0400 (EDT),1629590492841,NA,NA,0.33086666666666664,emotions_fake,1
2750,NA,NA,18,,Graduated High School,1629585129651,281,divers,s2,English ,Animal Products,Protesting,Vaccine against Covid-19,Abortion,Political Orientation,NA,NA,Which out of these topics do you care about the most?,Protesting,NA,NA,NA,NA,NA,Sat Aug 21 2021 23:31:48 GMT+0100 (BST),1629585108747,NA,NA,0.3484,sentence_customized,1
2750,NA,NA,18,,Graduated High School,1629585129651,281,divers,NA,English ,NA,NA,NA,NA,NA,Strongly Disagree,Strongly Agree,NA,-3,People should not buy or eat animal products,It is alright if political protesters use violence to enforce their demands,Everybody who is medically suited to receive a vaccination against Covid-19 should get such a vaccination,Abortion should be illegal,I am politically oriented towards the left,Sat Aug 21 2021 23:31:48 GMT+0100 (BST),1629585108747,NA,NA,0.3484,rating_choice,1
2750,NA,NA,18,,Graduated High School,1629585129651,281,divers,6,English ,NA,NA,NA,NA,NA,Call the police and report the robbery.,"Nothing, and let the robber be on their way.",What do you do?,+3,NA,NA,NA,NA,NA,Sat Aug 21 2021 23:31:48 GMT+0100 (BST),1629585108747, <br/><br/>60% of the other participants who agree with you on your chosen issue chose to report the robber.,"Imagine you have witnessed someone rob a bank. However, you then saw them do something unexpected with the money. They donated it all to a run-down orphanage that would benefit greatly from the money. You must decide whether to call the police and report the robber or do nothing and leave the robber alone.",0.3484,moral_dilemma_2A,1
2750,NA,NA,18,,Graduated High School,1629585129651,281,divers,s5,English ,Participants chose which action they preferred.,"Due to a computer error, participants were not allocated equally to imagine performing the different actions.",No data was saved during the experiment.,The participants completed the experiment with their eyes closed.,I don't understand what is happening here.,NA,NA,"To ensure you understood the assignment, please click on which of the following statements is true.",I don't understand what is happening here.,NA,NA,NA,NA,NA,Sat Aug 21 2021 23:31:48 GMT+0100 (BST),1629585108747,NA,NA,0.3484,understanding_choice,1
2750,,7127,18,,Graduated High School,1629585129651,281,divers,NA,English ,NA,NA,NA,NA,NA,happy,sad,How do you feel about your choice?,3,NA,NA,NA,NA,NA,Sat Aug 21 2021 23:31:48 GMT+0100 (BST),1629585108747,NA,NA,0.3484,emotions_fake,1
2749,NA,NA,36,,Higher Degree,1629584993125,281,female,s3,English,Animal Products,Protesting,Vaccine against Covid-19,Abortion,Political Orientation,NA,NA,Which out of these topics do you care about the most?,Vaccine against Covid-19,NA,NA,NA,NA,NA,Sat Aug 21 2021 16:29:19 GMT-0600 (MDT),1629584959699,NA,NA,0.5571,sentence_customized,1
2749,NA,NA,36,,Higher Degree,1629584993125,281,female,NA,English,NA,NA,NA,NA,NA,Strongly Disagree,Strongly Agree,NA,+5,People should not buy or eat animal products,It is alright if political protesters use violence to enforce their demands,Everybody who is medically suited to receive a vaccination against Covid-19 should get such a vaccination,Abortion should be illegal,I am politically oriented towards the left,Sat Aug 21 2021 16:29:19 GMT-0600 (MDT),1629584959699,NA,NA,0.5571,rating_choice,1
2749,NA,NA,36,,Higher Degree,1629584993125,281,female,5,English,NA,NA,NA,NA,NA,Call the police and report the robbery.,"Nothing, and let the robber be on their way.",What do you do?,+2,NA,NA,NA,NA,NA,Sat Aug 21 2021 16:29:19 GMT-0600 (MDT),1629584959699, <br/><br/>Approximately 60% of the other participants who agree with you on your chosen issue chose to let the robber go.,"Imagine you have witnessed someone rob a bank. However, you then saw them do something unexpected with the money. They donated it all to a run-down orphanage that would benefit greatly from the money. You must decide whether to call the police and report the robber or do nothing and leave the robber alone.",0.5571,moral_dilemma_2A,1
2749,NA,NA,36,,Higher Degree,1629584993125,281,female,s5,English,Participants chose which action they preferred.,"Due to a computer error, participants were not allocated equally to imagine performing the different actions.",No data was saved during the experiment.,The participants completed the experiment with their eyes closed.,I don't understand what is happening here.,NA,NA,"To ensure you understood the assignment, please click on which of the following statements is true.",I don't understand what is happening here.,NA,NA,NA,NA,NA,Sat Aug 21 2021 16:29:19 GMT-0600 (MDT),1629584959699,NA,NA,0.5571,understanding_choice,1
2749,,4169,36,,Higher Degree,1629584993125,281,female,NA,English,NA,NA,NA,NA,NA,happy,sad,How do you feel about your choice?,4,NA,NA,NA,NA,NA,Sat Aug 21 2021 16:29:19 GMT-0600 (MDT),1629584959699,NA,NA,0.5571,emotions_fake,1
2748,NA,NA,20,,Graduated High School,1629583867022,281,female,s3,English,Animal Products,Protesting,Vaccine against Covid-19,Abortion,Political Orientation,NA,NA,Which out of these topics do you care about the most?,Vaccine against Covid-19,NA,NA,NA,NA,NA,Sat Aug 21 2021 18:10:34 GMT-0400 (Eastern Daylight Time),1629583834368,NA,NA,0.5442333333333333,sentence_customized,1
2748,NA,NA,20,,Graduated High School,1629583867022,281,female,NA,English,NA,NA,NA,NA,NA,Strongly Disagree,Strongly Agree,NA,+4,People should not buy or eat animal products,It is alright if political protesters use violence to enforce their demands,Everybody who is medically suited to receive a vaccination against Covid-19 should get such a vaccination,Abortion should be illegal,I am politically oriented towards the left,Sat Aug 21 2021 18:10:34 GMT-0400 (Eastern Daylight Time),1629583834368,NA,NA,0.5442333333333333,rating_choice,1
2748,NA,NA,20,,Graduated High School,1629583867022,281,female,4,English,NA,NA,NA,NA,NA,Call the police and report the robbery.,"Nothing, and let the robber be on their way.",What do you do?,+1,NA,NA,NA,NA,NA,Sat Aug 21 2021 18:10:34 GMT-0400 (Eastern Daylight Time),1629583834368, <br/><br/>Approximately 60% of the other participants who agree with you on  your chosen issue chose to report the robber. <br/><br/> Approximately 85% of participants in a previous study who disagreed with you on  your chosen issue chose to let the robber go.,"Imagine you have witnessed someone rob a bank. However, you then saw them do something unexpected with the money. They donated it all to a run-down orphanage that would benefit greatly from the money. You must decide whether to call the police and report the robber or do nothing and leave the robber alone.",0.5442333333333333,moral_dilemma_2A,1
2748,NA,NA,20,,Graduated High School,1629583867022,281,female,s1,English,Participants chose which action they preferred.,"Due to a computer error, participants were not allocated equally to imagine performing the different actions.",No data was saved during the experiment.,The participants completed the experiment with their eyes closed.,I don't understand what is happening here.,NA,NA,"To ensure you understood the assignment, please click on which of the following statements is true.",Participants chose which action they preferred.,NA,NA,NA,NA,NA,Sat Aug 21 2021 18:10:34 GMT-0400 (Eastern Daylight Time),1629583834368,NA,NA,0.5442333333333333,understanding_choice,1
2748,,21790,20,,Graduated High School,1629583867022,281,female,NA,English,NA,NA,NA,NA,NA,happy,sad,How do you feel about your choice?,3,NA,NA,NA,NA,NA,Sat Aug 21 2021 18:10:34 GMT-0400 (Eastern Daylight Time),1629583834368,NA,NA,0.5442333333333333,emotions_fake,1
2747,NA,NA,31,,Higher Degree,1629583000237,281,female,s3,Italian,Animal Products,Protesting,Vaccine against Covid-19,Abortion,Political Orientation,NA,NA,Which out of these topics do you care about the most?,Vaccine against Covid-19,NA,NA,NA,NA,NA,Sat Aug 21 2021 23:56:13 GMT+0200 (Ora legale dell’Europa centrale),1629582973699,NA,NA,0.4423,sentence_customized,1
2747,NA,NA,31,,Higher Degree,1629583000237,281,female,NA,Italian,NA,NA,NA,NA,NA,Strongly Disagree,Strongly Agree,NA,+3,People should not buy or eat animal products,It is alright if political protesters use violence to enforce their demands,Everybody who is medically suited to receive a vaccination against Covid-19 should get such a vaccination,Abortion should be illegal,I am politically oriented towards the left,Sat Aug 21 2021 23:56:13 GMT+0200 (Ora legale dell’Europa centrale),1629582973699,NA,NA,0.4423,rating_choice,1
2747,NA,NA,31,,Higher Degree,1629583000237,281,female,6,Italian,NA,NA,NA,NA,NA,Call the police and report the robbery.,"Nothing, and let the robber be on their way.",What do you do?,+3,NA,NA,NA,NA,NA,Sat Aug 21 2021 23:56:13 GMT+0200 (Ora legale dell’Europa centrale),1629582973699, <br/><br/>Approximately 60% of the other participants who agree with you on your chosen issue chose to let the robber go.,"Imagine you have witnessed someone rob a bank. However, you then saw them do something unexpected with the money. They donated it all to a run-down orphanage that would benefit greatly from the money. You must decide whether to call the police and report the robber or do nothing and leave the robber alone.",0.4423,moral_dilemma_2A,1
2747,NA,NA,31,,Higher Degree,1629583000237,281,female,s1,Italian,Participants chose which action they preferred.,"Due to a computer error, participants were not allocated equally to imagine performing the different actions.",No data was saved during the experiment.,The participants completed the experiment with their eyes closed.,I don't understand what is happening here.,NA,NA,"To ensure you understood the assignment, please click on which of the following statements is true.",Participants chose which action they preferred.,NA,NA,NA,NA,NA,Sat Aug 21 2021 23:56:13 GMT+0200 (Ora legale dell’Europa centrale),1629582973699,NA,NA,0.4423,understanding_choice,1
2747,,5594,31,,Higher Degree,1629583000237,281,female,NA,Italian,NA,NA,NA,NA,NA,happy,sad,How do you feel about your choice?,1,NA,NA,NA,NA,NA,Sat Aug 21 2021 23:56:13 GMT+0200 (Ora legale dell’Europa centrale),1629582973699,NA,NA,0.4423,emotions_fake,1
2746,NA,NA,22,,Graduated College,1629582629636,281,female,s3,German,Animal Products,Protesting,Vaccine against Covid-19,Abortion,Political Orientation,NA,NA,Which out of these topics do you care about the most?,Vaccine against Covid-19,NA,NA,NA,NA,NA,Sat Aug 21 2021 23:50:03 GMT+0200 (Central European Summer Time),1629582603663,NA,NA,0.43288333333333334,sentence_customized,1
2746,NA,NA,22,,Graduated College,1629582629636,281,female,NA,German,NA,NA,NA,NA,NA,Strongly Disagree,Strongly Agree,NA,+5,People should not buy or eat animal products,It is alright if political protesters use violence to enforce their demands,Everybody who is medically suited to receive a vaccination against Covid-19 should get such a vaccination,Abortion should be illegal,I am politically oriented towards the left,Sat Aug 21 2021 23:50:03 GMT+0200 (Central European Summer Time),1629582603663,NA,NA,0.43288333333333334,rating_choice,1
2746,NA,NA,22,,Graduated College,1629582629636,281,female,6,German,NA,NA,NA,NA,NA,Call the police and report the robbery.,"Nothing, and let the robber be on their way.",What do you do?,+3,NA,NA,NA,NA,NA,Sat Aug 21 2021 23:50:03 GMT+0200 (Central European Summer Time),1629582603663, <br/><br/>Approximately 60% of the other participants who agree with you on  your chosen issue chose to let the robber go. <br/><br/> Approximately 85% of participants in a previous study who disagreed with you on  your chosen issue chose to report the robber.,"Imagine you have witnessed someone rob a bank. However, you then saw them do something unexpected with the money. They donated it all to a run-down orphanage that would benefit greatly from the money. You must decide whether to call the police and report the robber or do nothing and leave the robber alone.",0.43288333333333334,moral_dilemma_2A,1
2746,NA,NA,22,,Graduated College,1629582629636,281,female,s1,German,Participants chose which action they preferred.,"Due to a computer error, participants were not allocated equally to imagine performing the different actions.",No data was saved during the experiment.,The participants completed the experiment with their eyes closed.,I don't understand what is happening here.,NA,NA,"To ensure you understood the assignment, please click on which of the following statements is true.",Participants chose which action they preferred.,NA,NA,NA,NA,NA,Sat Aug 21 2021 23:50:03 GMT+0200 (Central European Summer Time),1629582603663,NA,NA,0.43288333333333334,understanding_choice,1
2746,,2787,22,,Graduated College,1629582629636,281,female,NA,German,NA,NA,NA,NA,NA,happy,sad,How do you feel about your choice?,1,NA,NA,NA,NA,NA,Sat Aug 21 2021 23:50:03 GMT+0200 (Central European Summer Time),1629582603663,NA,NA,0.43288333333333334,emotions_fake,1
2745,NA,NA,28,,Higher Degree,1629582451940,281,female,s3,English ,Animal Products,Protesting,Vaccine against Covid-19,Abortion,Political Orientation,NA,NA,Which out of these topics do you care about the most?,Vaccine against Covid-19,NA,NA,NA,NA,NA,Sat Aug 21 2021 15:47:00 GMT-0600 (MDT),1629582420461,NA,NA,0.52465,sentence_customized,1
2745,NA,NA,28,,Higher Degree,1629582451940,281,female,NA,English ,NA,NA,NA,NA,NA,Strongly Disagree,Strongly Agree,NA,+5,People should not buy or eat animal products,It is alright if political protesters use violence to enforce their demands,Everybody who is medically suited to receive a vaccination against Covid-19 should get such a vaccination,Abortion should be illegal,I am politically oriented towards the left,Sat Aug 21 2021 15:47:00 GMT-0600 (MDT),1629582420461,NA,NA,0.52465,rating_choice,1
2745,NA,NA,28,,Higher Degree,1629582451940,281,female,4,English ,NA,NA,NA,NA,NA,Call the police and report the robbery.,"Nothing, and let the robber be on their way.",What do you do?,+1,NA,NA,NA,NA,NA,Sat Aug 21 2021 15:47:00 GMT-0600 (MDT),1629582420461, <br/><br/>Approximately 60% of the other participants who agree with you on your chosen issue chose to let the robber go.,"Imagine you have witnessed someone rob a bank. However, you then saw them do something unexpected with the money. They donated it all to a run-down orphanage that would benefit greatly from the money. You must decide whether to call the police and report the robber or do nothing and leave the robber alone.",0.52465,moral_dilemma_2A,1
2745,NA,NA,28,,Higher Degree,1629582451940,281,female,s5,English ,Participants chose which action they preferred.,"Due to a computer error, participants were not allocated equally to imagine performing the different actions.",No data was saved during the experiment.,The participants completed the experiment with their eyes closed.,I don't understand what is happening here.,NA,NA,"To ensure you understood the assignment, please click on which of the following statements is true.",I don't understand what is happening here.,NA,NA,NA,NA,NA,Sat Aug 21 2021 15:47:00 GMT-0600 (MDT),1629582420461,NA,NA,0.52465,understanding_choice,1
2745,,6854,28,,Higher Degree,1629582451940,281,female,NA,English ,NA,NA,NA,NA,NA,happy,sad,How do you feel about your choice?,4,NA,NA,NA,NA,NA,Sat Aug 21 2021 15:47:00 GMT-0600 (MDT),1629582420461,NA,NA,0.52465,emotions_fake,1
2743,NA,NA,22,,Graduated College,1629581959248,281,male,s3,German,Animal Products,Protesting,Vaccine against Covid-19,Abortion,Political Orientation,NA,NA,Which out of these topics do you care about the most?,Vaccine against Covid-19,NA,NA,NA,NA,NA,Sat Aug 21 2021 22:34:53 GMT+0100 (BST),1629581693683,NA,NA,4.426083333333334,sentence_customized,1
2743,NA,NA,22,,Graduated College,1629581959248,281,male,NA,German,NA,NA,NA,NA,NA,Strongly Disagree,Strongly Agree,NA,+5,People should not buy or eat animal products,It is alright if political protesters use violence to enforce their demands,Everybody who is medically suited to receive a vaccination against Covid-19 should get such a vaccination,Abortion should be illegal,I am politically oriented towards the left,Sat Aug 21 2021 22:34:53 GMT+0100 (BST),1629581693683,NA,NA,4.426083333333334,rating_choice,1
2743,NA,NA,22,,Graduated College,1629581959248,281,male,2,German,NA,NA,NA,NA,NA,Call the police and report the robbery.,"Nothing, and let the robber be on their way.",What do you do?,-2,NA,NA,NA,NA,NA,Sat Aug 21 2021 22:34:53 GMT+0100 (BST),1629581693683, <br/><br/>Approximately 60% of the other participants who agree with you on  your chosen issue chose to report the robber. <br/><br/> Approximately 85% of participants in a previous study who disagreed with you on  your chosen issue chose to let the robber go.,"Imagine you have witnessed someone rob a bank. However, you then saw them do something unexpected with the money. They donated it all to a run-down orphanage that would benefit greatly from the money. You must decide whether to call the police and report the robber or do nothing and leave the robber alone.",4.426083333333334,moral_dilemma_2A,1
2743,NA,NA,22,,Graduated College,1629581959248,281,male,s5,German,Participants chose which action they preferred.,"Due to a computer error, participants were not allocated equally to imagine performing the different actions.",No data was saved during the experiment.,The participants completed the experiment with their eyes closed.,I don't understand what is happening here.,NA,NA,"To ensure you understood the assignment, please click on which of the following statements is true.",I don't understand what is happening here.,NA,NA,NA,NA,NA,Sat Aug 21 2021 22:34:53 GMT+0100 (BST),1629581693683,NA,NA,4.426083333333334,understanding_choice,1
2743,,7123,22,,Graduated College,1629581959248,281,male,NA,German,NA,NA,NA,NA,NA,happy,sad,How do you feel about your choice?,3,NA,NA,NA,NA,NA,Sat Aug 21 2021 22:34:53 GMT+0100 (BST),1629581693683,NA,NA,4.426083333333334,emotions_fake,1
2742,NA,NA,31,"9 years of English mastery.
Single, no partners.",Graduated College,1629580783537,281,divers,s3,Spanish,Animal Products,Protesting,Vaccine against Covid-19,Abortion,Political Orientation,NA,NA,Which out of these topics do you care about the most?,Vaccine against Covid-19,NA,NA,NA,NA,NA,Sat Aug 21 2021 16:17:56 GMT-0500 (Central Daylight Time),1629580676035,NA,NA,1.7917,sentence_customized,1
2742,NA,NA,31,"9 years of English mastery.
Single, no partners.",Graduated College,1629580783537,281,divers,NA,Spanish,NA,NA,NA,NA,NA,Strongly Disagree,Strongly Agree,NA,+5,People should not buy or eat animal products,It is alright if political protesters use violence to enforce their demands,Everybody who is medically suited to receive a vaccination against Covid-19 should get such a vaccination,Abortion should be illegal,I am politically oriented towards the left,Sat Aug 21 2021 16:17:56 GMT-0500 (Central Daylight Time),1629580676035,NA,NA,1.7917,rating_choice,1
2742,NA,NA,31,"9 years of English mastery.
Single, no partners.",Graduated College,1629580783537,281,divers,6,Spanish,NA,NA,NA,NA,NA,Call the police and report the robbery.,"Nothing, and let the robber be on their way.",What do you do?,+3,NA,NA,NA,NA,NA,Sat Aug 21 2021 16:17:56 GMT-0500 (Central Daylight Time),1629580676035, <br/><br/>Approximately 60% of the other participants who agree with you on  your chosen issue chose to let the robber go. <br/><br/> Approximately 85% of participants in a previous study who disagreed with you on  your chosen issue chose to report the robber.,"Imagine you have witnessed someone rob a bank. However, you then saw them do something unexpected with the money. They donated it all to a run-down orphanage that would benefit greatly from the money. You must decide whether to call the police and report the robber or do nothing and leave the robber alone.",1.7917,moral_dilemma_2A,1
2742,NA,NA,31,"9 years of English mastery.
Single, no partners.",Graduated College,1629580783537,281,divers,s1,Spanish,Participants chose which action they preferred.,"Due to a computer error, participants were not allocated equally to imagine performing the different actions.",No data was saved during the experiment.,The participants completed the experiment with their eyes closed.,I don't understand what is happening here.,NA,NA,"To ensure you understood the assignment, please click on which of the following statements is true.",Participants chose which action they preferred.,NA,NA,NA,NA,NA,Sat Aug 21 2021 16:17:56 GMT-0500 (Central Daylight Time),1629580676035,NA,NA,1.7917,understanding_choice,1
2742,,4792,31,"9 years of English mastery.
Single, no partners.",Graduated College,1629580783537,281,divers,NA,Spanish,NA,NA,NA,NA,NA,happy,sad,How do you feel about your choice?,1,NA,NA,NA,NA,NA,Sat Aug 21 2021 16:17:56 GMT-0500 (Central Daylight Time),1629580676035,NA,NA,1.7917,emotions_fake,1
2741,NA,NA,22,,Graduated High School,1629579196656,281,divers,s3,English,Animal Products,Protesting,Vaccine against Covid-19,Abortion,Political Orientation,NA,NA,Which out of these topics do you care about the most?,Vaccine against Covid-19,NA,NA,NA,NA,NA,Sat Aug 21 2021 16:52:41 GMT-0400 (Eastern Daylight Time),1629579161683,NA,NA,0.5828833333333333,sentence_customized,1
2741,NA,NA,22,,Graduated High School,1629579196656,281,divers,NA,English,NA,NA,NA,NA,NA,Strongly Disagree,Strongly Agree,NA,+5,People should not buy or eat animal products,It is alright if political protesters use violence to enforce their demands,Everybody who is medically suited to receive a vaccination against Covid-19 should get such a vaccination,Abortion should be illegal,I am politically oriented towards the left,Sat Aug 21 2021 16:52:41 GMT-0400 (Eastern Daylight Time),1629579161683,NA,NA,0.5828833333333333,rating_choice,1
2741,NA,NA,22,,Graduated High School,1629579196656,281,divers,6,English,NA,NA,NA,NA,NA,Call the police and report the robbery.,"Nothing, and let the robber be on their way.",What do you do?,+3,NA,NA,NA,NA,NA,Sat Aug 21 2021 16:52:41 GMT-0400 (Eastern Daylight Time),1629579161683, <br/><br/>Approximately 60% of the other participants who agree with you on  your chosen issue chose to let the robber go. <br/><br/> Approximately 85% of participants in a previous study who disagreed with you on  your chosen issue chose to report the robber.,"Imagine you have witnessed someone rob a bank. However, you then saw them do something unexpected with the money. They donated it all to a run-down orphanage that would benefit greatly from the money. You must decide whether to call the police and report the robber or do nothing and leave the robber alone.",0.5828833333333333,moral_dilemma_2A,1
2741,NA,NA,22,,Graduated High School,1629579196656,281,divers,s1,English,Participants chose which action they preferred.,"Due to a computer error, participants were not allocated equally to imagine performing the different actions.",No data was saved during the experiment.,The participants completed the experiment with their eyes closed.,I don't understand what is happening here.,NA,NA,"To ensure you understood the assignment, please click on which of the following statements is true.",Participants chose which action they preferred.,NA,NA,NA,NA,NA,Sat Aug 21 2021 16:52:41 GMT-0400 (Eastern Daylight Time),1629579161683,NA,NA,0.5828833333333333,understanding_choice,1
2741,,3766,22,,Graduated High School,1629579196656,281,divers,NA,English,NA,NA,NA,NA,NA,happy,sad,How do you feel about your choice?,1,NA,NA,NA,NA,NA,Sat Aug 21 2021 16:52:41 GMT-0400 (Eastern Daylight Time),1629579161683,NA,NA,0.5828833333333333,emotions_fake,1
2740,NA,NA,35,,Graduated High School,1629578682765,281,female,s3,English,Animal Products,Protesting,Vaccine against Covid-19,Abortion,Political Orientation,NA,NA,Which out of these topics do you care about the most?,Vaccine against Covid-19,NA,NA,NA,NA,NA,Sat Aug 21 2021 16:43:32 GMT-0400 (Eastern Daylight Time),1629578612298,NA,NA,1.17445,sentence_customized,1
2740,NA,NA,35,,Graduated High School,1629578682765,281,female,NA,English,NA,NA,NA,NA,NA,Strongly Disagree,Strongly Agree,NA,+5,People should not buy or eat animal products,It is alright if political protesters use violence to enforce their demands,Everybody who is medically suited to receive a vaccination against Covid-19 should get such a vaccination,Abortion should be illegal,I am politically oriented towards the left,Sat Aug 21 2021 16:43:32 GMT-0400 (Eastern Daylight Time),1629578612298,NA,NA,1.17445,rating_choice,1
2740,NA,NA,35,,Graduated High School,1629578682765,281,female,4,English,NA,NA,NA,NA,NA,Call the police and report the robbery.,"Nothing, and let the robber be on their way.",What do you do?,+1,NA,NA,NA,NA,NA,Sat Aug 21 2021 16:43:32 GMT-0400 (Eastern Daylight Time),1629578612298, <br/><br/>Approximately 60% of the other participants who agree with you on your chosen issue chose to let the robber go.,"Imagine you have witnessed someone rob a bank. However, you then saw them do something unexpected with the money. They donated it all to a run-down orphanage that would benefit greatly from the money. You must decide whether to call the police and report the robber or do nothing and leave the robber alone.",1.17445,moral_dilemma_2A,1
2740,NA,NA,35,,Graduated High School,1629578682765,281,female,s1,English,Participants chose which action they preferred.,"Due to a computer error, participants were not allocated equally to imagine performing the different actions.",No data was saved during the experiment.,The participants completed the experiment with their eyes closed.,I don't understand what is happening here.,NA,NA,"To ensure you understood the assignment, please click on which of the following statements is true.",Participants chose which action they preferred.,NA,NA,NA,NA,NA,Sat Aug 21 2021 16:43:32 GMT-0400 (Eastern Daylight Time),1629578612298,NA,NA,1.17445,understanding_choice,1
2740,,8734,35,,Graduated High School,1629578682765,281,female,NA,English,NA,NA,NA,NA,NA,happy,sad,How do you feel about your choice?,4,NA,NA,NA,NA,NA,Sat Aug 21 2021 16:43:32 GMT-0400 (Eastern Daylight Time),1629578612298,NA,NA,1.17445,emotions_fake,1
2739,NA,NA,23,,Graduated High School,1629578164236,281,male,s5,German,Animal Products,Protesting,Vaccine against Covid-19,Abortion,Political Orientation,NA,NA,Which out of these topics do you care about the most?,Political Orientation,NA,NA,NA,NA,NA,Sat Aug 21 2021 22:35:23 GMT+0200 (CEST),1629578123298,NA,NA,0.6823,sentence_customized,1
2739,NA,NA,23,,Graduated High School,1629578164236,281,male,NA,German,NA,NA,NA,NA,NA,Strongly Disagree,Strongly Agree,NA,-5,People should not buy or eat animal products,It is alright if political protesters use violence to enforce their demands,Everybody who is medically suited to receive a vaccination against Covid-19 should get such a vaccination,Abortion should be illegal,I am politically oriented towards the left,Sat Aug 21 2021 22:35:23 GMT+0200 (CEST),1629578123298,NA,NA,0.6823,rating_choice,1
2739,NA,NA,23,,Graduated High School,1629578164236,281,male,2,German,NA,NA,NA,NA,NA,Call the police and report the robbery.,"Nothing, and let the robber be on their way.",What do you do?,-2,NA,NA,NA,NA,NA,Sat Aug 21 2021 22:35:23 GMT+0200 (CEST),1629578123298, <br/><br/>Approximately 60% of the other participants who agree with you on your chosen issue chose to let the robber go.,"Imagine you have witnessed someone rob a bank. However, you then saw them do something unexpected with the money. They donated it all to a run-down orphanage that would benefit greatly from the money. You must decide whether to call the police and report the robber or do nothing and leave the robber alone.",0.6823,moral_dilemma_2A,1
2739,NA,NA,23,,Graduated High School,1629578164236,281,male,s1,German,Participants chose which action they preferred.,"Due to a computer error, participants were not allocated equally to imagine performing the different actions.",No data was saved during the experiment.,The participants completed the experiment with their eyes closed.,I don't understand what is happening here.,NA,NA,"To ensure you understood the assignment, please click on which of the following statements is true.",Participants chose which action they preferred.,NA,NA,NA,NA,NA,Sat Aug 21 2021 22:35:23 GMT+0200 (CEST),1629578123298,NA,NA,0.6823,understanding_choice,1
2739,,4933,23,,Graduated High School,1629578164236,281,male,NA,German,NA,NA,NA,NA,NA,happy,sad,How do you feel about your choice?,1,NA,NA,NA,NA,NA,Sat Aug 21 2021 22:35:23 GMT+0200 (CEST),1629578123298,NA,NA,0.6823,emotions_fake,1
2738,NA,NA,23,,Graduated College,1629578130627,281,male,s5,"German, English",Animal Products,Protesting,Vaccine against Covid-19,Abortion,Political Orientation,NA,NA,Which out of these topics do you care about the most?,Political Orientation,NA,NA,NA,NA,NA,Sat Aug 21 2021 22:35:06 GMT+0200 (CEST),1629578106968,NA,NA,0.39431666666666665,sentence_customized,1
2738,NA,NA,23,,Graduated College,1629578130627,281,male,NA,"German, English",NA,NA,NA,NA,NA,Strongly Disagree,Strongly Agree,NA,+5,People should not buy or eat animal products,It is alright if political protesters use violence to enforce their demands,Everybody who is medically suited to receive a vaccination against Covid-19 should get such a vaccination,Abortion should be illegal,I am politically oriented towards the left,Sat Aug 21 2021 22:35:06 GMT+0200 (CEST),1629578106968,NA,NA,0.39431666666666665,rating_choice,1
2738,NA,NA,23,,Graduated College,1629578130627,281,male,4,"German, English",NA,NA,NA,NA,NA,Call the police and report the robbery.,"Nothing, and let the robber be on their way.",What do you do?,+1,NA,NA,NA,NA,NA,Sat Aug 21 2021 22:35:06 GMT+0200 (CEST),1629578106968, <br/><br/>Approximately 60% of the other participants who agree with you on your chosen issue chose to let the robber go.,"Imagine you have witnessed someone rob a bank. However, you then saw them do something unexpected with the money. They donated it all to a run-down orphanage that would benefit greatly from the money. You must decide whether to call the police and report the robber or do nothing and leave the robber alone.",0.39431666666666665,moral_dilemma_2A,1
2738,NA,NA,23,,Graduated College,1629578130627,281,male,s1,"German, English",Participants chose which action they preferred.,"Due to a computer error, participants were not allocated equally to imagine performing the different actions.",No data was saved during the experiment.,The participants completed the experiment with their eyes closed.,I don't understand what is happening here.,NA,NA,"To ensure you understood the assignment, please click on which of the following statements is true.",Participants chose which action they preferred.,NA,NA,NA,NA,NA,Sat Aug 21 2021 22:35:06 GMT+0200 (CEST),1629578106968,NA,NA,0.39431666666666665,understanding_choice,1
2738,,4519,23,,Graduated College,1629578130627,281,male,NA,"German, English",NA,NA,NA,NA,NA,happy,sad,How do you feel about your choice?,5,NA,NA,NA,NA,NA,Sat Aug 21 2021 22:35:06 GMT+0200 (CEST),1629578106968,NA,NA,0.39431666666666665,emotions_fake,1
2737,NA,NA,25,,Graduated College,1629577819191,281,male,s5,Russian,Animal Products,Protesting,Vaccine against Covid-19,Abortion,Political Orientation,NA,NA,Which out of these topics do you care about the most?,Political Orientation,NA,NA,NA,NA,NA,Sat Aug 21 2021 22:29:27 GMT+0200 (Central European Summer Time),1629577767747,NA,NA,0.8574,sentence_customized,1
2737,NA,NA,25,,Graduated College,1629577819191,281,male,NA,Russian,NA,NA,NA,NA,NA,Strongly Disagree,Strongly Agree,NA,+3,People should not buy or eat animal products,It is alright if political protesters use violence to enforce their demands,Everybody who is medically suited to receive a vaccination against Covid-19 should get such a vaccination,Abortion should be illegal,I am politically oriented towards the left,Sat Aug 21 2021 22:29:27 GMT+0200 (Central European Summer Time),1629577767747,NA,NA,0.8574,rating_choice,1
2737,NA,NA,25,,Graduated College,1629577819191,281,male,5,Russian,NA,NA,NA,NA,NA,Call the police and report the robbery.,"Nothing, and let the robber be on their way.",What do you do?,+2,NA,NA,NA,NA,NA,Sat Aug 21 2021 22:29:27 GMT+0200 (Central European Summer Time),1629577767747, <br/><br/>Approximately 60% of the other participants who agree with you on  your chosen issue chose to report the robber. <br/><br/> Approximately 85% of participants in a previous study who disagreed with you on  your chosen issue chose to let the robber go.,"Imagine you have witnessed someone rob a bank. However, you then saw them do something unexpected with the money. They donated it all to a run-down orphanage that would benefit greatly from the money. You must decide whether to call the police and report the robber or do nothing and leave the robber alone.",0.8574,moral_dilemma_2A,1
2737,NA,NA,25,,Graduated College,1629577819191,281,male,s1,Russian,Participants chose which action they preferred.,"Due to a computer error, participants were not allocated equally to imagine performing the different actions.",No data was saved during the experiment.,The participants completed the experiment with their eyes closed.,I don't understand what is happening here.,NA,NA,"To ensure you understood the assignment, please click on which of the following statements is true.",Participants chose which action they preferred.,NA,NA,NA,NA,NA,Sat Aug 21 2021 22:29:27 GMT+0200 (Central European Summer Time),1629577767747,NA,NA,0.8574,understanding_choice,1
2737,,11048,25,,Graduated College,1629577819191,281,male,NA,Russian,NA,NA,NA,NA,NA,happy,sad,How do you feel about your choice?,4,NA,NA,NA,NA,NA,Sat Aug 21 2021 22:29:27 GMT+0200 (Central European Summer Time),1629577767747,NA,NA,0.8574,emotions_fake,1
2735,NA,NA,33,,Graduated High School,1629577820037,281,female,s3,English,Animal Products,Protesting,Vaccine against Covid-19,Abortion,Political Orientation,NA,NA,Which out of these topics do you care about the most?,Vaccine against Covid-19,NA,NA,NA,NA,NA,Sat Aug 21 2021 16:29:40 GMT-0400 (Eastern Daylight Time),1629577780154,NA,NA,0.6647166666666666,sentence_customized,1
2735,NA,NA,33,,Graduated High School,1629577820037,281,female,NA,English,NA,NA,NA,NA,NA,Strongly Disagree,Strongly Agree,NA,+5,People should not buy or eat animal products,It is alright if political protesters use violence to enforce their demands,Everybody who is medically suited to receive a vaccination against Covid-19 should get such a vaccination,Abortion should be illegal,I am politically oriented towards the left,Sat Aug 21 2021 16:29:40 GMT-0400 (Eastern Daylight Time),1629577780154,NA,NA,0.6647166666666666,rating_choice,1
2735,NA,NA,33,,Graduated High School,1629577820037,281,female,5,English,NA,NA,NA,NA,NA,Call the police and report the robbery.,"Nothing, and let the robber be on their way.",What do you do?,+2,NA,NA,NA,NA,NA,Sat Aug 21 2021 16:29:40 GMT-0400 (Eastern Daylight Time),1629577780154, <br/><br/>60% of the other participants who agree with you on your chosen issue chose to report the robber.,"Imagine you have witnessed someone rob a bank. However, you then saw them do something unexpected with the money. They donated it all to a run-down orphanage that would benefit greatly from the money. You must decide whether to call the police and report the robber or do nothing and leave the robber alone.",0.6647166666666666,moral_dilemma_2A,1
2735,NA,NA,33,,Graduated High School,1629577820037,281,female,s1,English,Participants chose which action they preferred.,"Due to a computer error, participants were not allocated equally to imagine performing the different actions.",No data was saved during the experiment.,The participants completed the experiment with their eyes closed.,I don't understand what is happening here.,NA,NA,"To ensure you understood the assignment, please click on which of the following statements is true.",Participants chose which action they preferred.,NA,NA,NA,NA,NA,Sat Aug 21 2021 16:29:40 GMT-0400 (Eastern Daylight Time),1629577780154,NA,NA,0.6647166666666666,understanding_choice,1
2735,,3767,33,,Graduated High School,1629577820037,281,female,NA,English,NA,NA,NA,NA,NA,happy,sad,How do you feel about your choice?,3,NA,NA,NA,NA,NA,Sat Aug 21 2021 16:29:40 GMT-0400 (Eastern Daylight Time),1629577780154,NA,NA,0.6647166666666666,emotions_fake,1
2734,NA,NA,21,,Graduated College,1629577440295,281,divers,s3,French,Animal Products,Protesting,Vaccine against Covid-19,Abortion,Political Orientation,NA,NA,Which out of these topics do you care about the most?,Vaccine against Covid-19,NA,NA,NA,NA,NA,Sat Aug 21 2021 22:23:30 GMT+0200 (heure d’été d’Europe centrale),1629577410753,NA,NA,0.4923666666666667,sentence_customized,1
2734,NA,NA,21,,Graduated College,1629577440295,281,divers,NA,French,NA,NA,NA,NA,NA,Strongly Disagree,Strongly Agree,NA,+5,People should not buy or eat animal products,It is alright if political protesters use violence to enforce their demands,Everybody who is medically suited to receive a vaccination against Covid-19 should get such a vaccination,Abortion should be illegal,I am politically oriented towards the left,Sat Aug 21 2021 22:23:30 GMT+0200 (heure d’été d’Europe centrale),1629577410753,NA,NA,0.4923666666666667,rating_choice,1
2734,NA,NA,21,,Graduated College,1629577440295,281,divers,6,French,NA,NA,NA,NA,NA,Call the police and report the robbery.,"Nothing, and let the robber be on their way.",What do you do?,+3,NA,NA,NA,NA,NA,Sat Aug 21 2021 22:23:30 GMT+0200 (heure d’été d’Europe centrale),1629577410753, <br/><br/>60% of the other participants who agree with you on your chosen issue chose to report the robber.,"Imagine you have witnessed someone rob a bank. However, you then saw them do something unexpected with the money. They donated it all to a run-down orphanage that would benefit greatly from the money. You must decide whether to call the police and report the robber or do nothing and leave the robber alone.",0.4923666666666667,moral_dilemma_2A,1
2734,NA,NA,21,,Graduated College,1629577440295,281,divers,s1,French,Participants chose which action they preferred.,"Due to a computer error, participants were not allocated equally to imagine performing the different actions.",No data was saved during the experiment.,The participants completed the experiment with their eyes closed.,I don't understand what is happening here.,NA,NA,"To ensure you understood the assignment, please click on which of the following statements is true.",Participants chose which action they preferred.,NA,NA,NA,NA,NA,Sat Aug 21 2021 22:23:30 GMT+0200 (heure d’été d’Europe centrale),1629577410753,NA,NA,0.4923666666666667,understanding_choice,1
2734,,5500,21,,Graduated College,1629577440295,281,divers,NA,French,NA,NA,NA,NA,NA,happy,sad,How do you feel about your choice?,2,NA,NA,NA,NA,NA,Sat Aug 21 2021 22:23:30 GMT+0200 (heure d’été d’Europe centrale),1629577410753,NA,NA,0.4923666666666667,emotions_fake,1
2733,NA,NA,18,,Graduated High School,1629577370614,281,female,s4,German ,Animal Products,Protesting,Vaccine against Covid-19,Abortion,Political Orientation,NA,NA,Which out of these topics do you care about the most?,Abortion,NA,NA,NA,NA,NA,Sat Aug 21 2021 22:22:23 GMT+0200 (CEST),1629577343655,NA,NA,0.44931666666666664,sentence_customized,1
2733,NA,NA,18,,Graduated High School,1629577370614,281,female,NA,German ,NA,NA,NA,NA,NA,Strongly Disagree,Strongly Agree,NA,-5,People should not buy or eat animal products,It is alright if political protesters use violence to enforce their demands,Everybody who is medically suited to receive a vaccination against Covid-19 should get such a vaccination,Abortion should be illegal,I am politically oriented towards the left,Sat Aug 21 2021 22:22:23 GMT+0200 (CEST),1629577343655,NA,NA,0.44931666666666664,rating_choice,1
2733,NA,NA,18,,Graduated High School,1629577370614,281,female,6,German ,NA,NA,NA,NA,NA,Call the police and report the robbery.,"Nothing, and let the robber be on their way.",What do you do?,+3,NA,NA,NA,NA,NA,Sat Aug 21 2021 22:22:23 GMT+0200 (CEST),1629577343655, <br/><br/>Approximately 60% of the other participants who agree with you on  your chosen issue chose to report the robber. <br/><br/> Approximately 85% of participants in a previous study who disagreed with you on  your chosen issue chose to let the robber go.,"Imagine you have witnessed someone rob a bank. However, you then saw them do something unexpected with the money. They donated it all to a run-down orphanage that would benefit greatly from the money. You must decide whether to call the police and report the robber or do nothing and leave the robber alone.",0.44931666666666664,moral_dilemma_2A,1
2733,NA,NA,18,,Graduated High School,1629577370614,281,female,s1,German ,Participants chose which action they preferred.,"Due to a computer error, participants were not allocated equally to imagine performing the different actions.",No data was saved during the experiment.,The participants completed the experiment with their eyes closed.,I don't understand what is happening here.,NA,NA,"To ensure you understood the assignment, please click on which of the following statements is true.",Participants chose which action they preferred.,NA,NA,NA,NA,NA,Sat Aug 21 2021 22:22:23 GMT+0200 (CEST),1629577343655,NA,NA,0.44931666666666664,understanding_choice,1
2733,,3524,18,,Graduated High School,1629577370614,281,female,NA,German ,NA,NA,NA,NA,NA,happy,sad,How do you feel about your choice?,1,NA,NA,NA,NA,NA,Sat Aug 21 2021 22:22:23 GMT+0200 (CEST),1629577343655,NA,NA,0.44931666666666664,emotions_fake,1
2732,NA,NA,24,,Graduated College,1629577331408,281,female,s3,English,Animal Products,Protesting,Vaccine against Covid-19,Abortion,Political Orientation,NA,NA,Which out of these topics do you care about the most?,Vaccine against Covid-19,NA,NA,NA,NA,NA,Sat Aug 21 2021 16:21:37 GMT-0400 (EDT),1629577297315,NA,NA,0.5682166666666667,sentence_customized,1
2732,NA,NA,24,,Graduated College,1629577331408,281,female,NA,English,NA,NA,NA,NA,NA,Strongly Disagree,Strongly Agree,NA,+4,People should not buy or eat animal products,It is alright if political protesters use violence to enforce their demands,Everybody who is medically suited to receive a vaccination against Covid-19 should get such a vaccination,Abortion should be illegal,I am politically oriented towards the left,Sat Aug 21 2021 16:21:37 GMT-0400 (EDT),1629577297315,NA,NA,0.5682166666666667,rating_choice,1
2732,NA,NA,24,,Graduated College,1629577331408,281,female,5,English,NA,NA,NA,NA,NA,Call the police and report the robbery.,"Nothing, and let the robber be on their way.",What do you do?,+2,NA,NA,NA,NA,NA,Sat Aug 21 2021 16:21:37 GMT-0400 (EDT),1629577297315, <br/><br/>60% of the other participants who agree with you on your chosen issue chose to report the robber.,"Imagine you have witnessed someone rob a bank. However, you then saw them do something unexpected with the money. They donated it all to a run-down orphanage that would benefit greatly from the money. You must decide whether to call the police and report the robber or do nothing and leave the robber alone.",0.5682166666666667,moral_dilemma_2A,1
2732,NA,NA,24,,Graduated College,1629577331408,281,female,s1,English,Participants chose which action they preferred.,"Due to a computer error, participants were not allocated equally to imagine performing the different actions.",No data was saved during the experiment.,The participants completed the experiment with their eyes closed.,I don't understand what is happening here.,NA,NA,"To ensure you understood the assignment, please click on which of the following statements is true.",Participants chose which action they preferred.,NA,NA,NA,NA,NA,Sat Aug 21 2021 16:21:37 GMT-0400 (EDT),1629577297315,NA,NA,0.5682166666666667,understanding_choice,1
2732,,9541,24,,Graduated College,1629577331408,281,female,NA,English,NA,NA,NA,NA,NA,happy,sad,How do you feel about your choice?,3,NA,NA,NA,NA,NA,Sat Aug 21 2021 16:21:37 GMT-0400 (EDT),1629577297315,NA,NA,0.5682166666666667,emotions_fake,1
2731,NA,NA,21,,Graduated High School,1629577298686,281,female,s3,English,Animal Products,Protesting,Vaccine against Covid-19,Abortion,Political Orientation,NA,NA,Which out of these topics do you care about the most?,Vaccine against Covid-19,NA,NA,NA,NA,NA,Sat Aug 21 2021 21:21:05 GMT+0100 (British Summer Time),1629577265874,NA,NA,0.5468666666666666,sentence_customized,1
2731,NA,NA,21,,Graduated High School,1629577298686,281,female,NA,English,NA,NA,NA,NA,NA,Strongly Disagree,Strongly Agree,NA,+4,People should not buy or eat animal products,It is alright if political protesters use violence to enforce their demands,Everybody who is medically suited to receive a vaccination against Covid-19 should get such a vaccination,Abortion should be illegal,I am politically oriented towards the left,Sat Aug 21 2021 21:21:05 GMT+0100 (British Summer Time),1629577265874,NA,NA,0.5468666666666666,rating_choice,1
2731,NA,NA,21,,Graduated High School,1629577298686,281,female,5,English,NA,NA,NA,NA,NA,Call the police and report the robbery.,"Nothing, and let the robber be on their way.",What do you do?,+2,NA,NA,NA,NA,NA,Sat Aug 21 2021 21:21:05 GMT+0100 (British Summer Time),1629577265874, <br/><br/>Approximately 60% of the other participants who agree with you on  your chosen issue chose to let the robber go. <br/><br/> Approximately 85% of participants in a previous study who disagreed with you on  your chosen issue chose to report the robber.,"Imagine you have witnessed someone rob a bank. However, you then saw them do something unexpected with the money. They donated it all to a run-down orphanage that would benefit greatly from the money. You must decide whether to call the police and report the robber or do nothing and leave the robber alone.",0.5468666666666666,moral_dilemma_2A,1
2731,NA,NA,21,,Graduated High School,1629577298686,281,female,s1,English,Participants chose which action they preferred.,"Due to a computer error, participants were not allocated equally to imagine performing the different actions.",No data was saved during the experiment.,The participants completed the experiment with their eyes closed.,I don't understand what is happening here.,NA,NA,"To ensure you understood the assignment, please click on which of the following statements is true.",Participants chose which action they preferred.,NA,NA,NA,NA,NA,Sat Aug 21 2021 21:21:05 GMT+0100 (British Summer Time),1629577265874,NA,NA,0.5468666666666666,understanding_choice,1
2731,,4168,21,,Graduated High School,1629577298686,281,female,NA,English,NA,NA,NA,NA,NA,happy,sad,How do you feel about your choice?,1,NA,NA,NA,NA,NA,Sat Aug 21 2021 21:21:05 GMT+0100 (British Summer Time),1629577265874,NA,NA,0.5468666666666666,emotions_fake,1
