submission_id,QUD,RT,age,comments,education,endTime,experiment_id,gender,id,languages,option1,option2,option3,option4,option5,optionLeft,optionRight,question,response,s1,s2,s3,s4,s5,startDate,startTime,text1,text2,timeSpent,trial_name,trial_number
3227,NA,NA,23,,Graduated High School,1630871800614,281,male,s3,german,Animal Products,Protesting,Vaccine against Covid-19,Abortion,Political Orientation,NA,NA,Which out of these topics do you care about the most?,Vaccine against Covid-19,NA,NA,NA,NA,NA,Sun Sep 05 2021 20:56:23 GMT+0100 (Britische Sommerzeit),1630871783689,NA,NA,0.28208333333333335,sentence_customized,1
3227,NA,NA,23,,Graduated High School,1630871800614,281,male,NA,german,NA,NA,NA,NA,NA,Strongly Disagree,Strongly Agree,NA,+5,People should not buy or eat animal products,It is alright if political protesters use violence to enforce their demands,Everybody who is medically suited to receive a vaccination against Covid-19 should get such a vaccination,Abortion should be illegal,I am politically oriented towards the left,Sun Sep 05 2021 20:56:23 GMT+0100 (Britische Sommerzeit),1630871783689,NA,NA,0.28208333333333335,rating_choice,1
3227,NA,NA,23,,Graduated High School,1630871800614,281,male,6,german,NA,NA,NA,NA,NA,Call the police and report the robbery.,"Nothing, and let the robber be on their way.",What do you do?,+3,NA,NA,NA,NA,NA,Sun Sep 05 2021 20:56:23 GMT+0100 (Britische Sommerzeit),1630871783689, <br/><br/>Approximately 60% of the other participants who agree with you on  your chosen issue chose to report the robber. <br/><br/> Approximately 85% of participants in a previous study who disagreed with you on  your chosen issue chose to let the robber go.,"Imagine you have witnessed someone rob a bank. However, you then saw them do something unexpected with the money. They donated it all to a run-down orphanage that would benefit greatly from the money. You must decide whether to call the police and report the robber or do nothing and leave the robber alone.",0.28208333333333335,moral_dilemma_2A,1
3227,NA,NA,23,,Graduated High School,1630871800614,281,male,s1,german,Participants chose which action they preferred.,"Due to a computer error, participants were not allocated equally to imagine performing the different actions.",No data was saved during the experiment.,The participants completed the experiment with their eyes closed.,I don't understand what is happening here.,NA,NA,"To ensure you understood the assignment, please click on which of the following statements is true.",Participants chose which action they preferred.,NA,NA,NA,NA,NA,Sun Sep 05 2021 20:56:23 GMT+0100 (Britische Sommerzeit),1630871783689,NA,NA,0.28208333333333335,understanding_choice,1
3227,,5455,23,,Graduated High School,1630871800614,281,male,NA,german,NA,NA,NA,NA,NA,happy,sad,How do you feel about your choice?,3,NA,NA,NA,NA,NA,Sun Sep 05 2021 20:56:23 GMT+0100 (Britische Sommerzeit),1630871783689,NA,NA,0.28208333333333335,emotions_fake,1
3224,NA,NA,63,,Graduated College,1630441369242,281,female,s3,"Portuguese, english and german",Animal Products,Protesting,Vaccine against Covid-19,Abortion,Political Orientation,NA,NA,Which out of these topics do you care about the most?,Vaccine against Covid-19,NA,NA,NA,NA,NA,Tue Aug 31 2021 22:21:29 GMT+0200 (Horário de Verão da Europa Central),1630441289585,NA,NA,1.3276166666666667,sentence_customized,1
3224,NA,NA,63,,Graduated College,1630441369242,281,female,NA,"Portuguese, english and german",NA,NA,NA,NA,NA,Strongly Disagree,Strongly Agree,NA,+4,People should not buy or eat animal products,It is alright if political protesters use violence to enforce their demands,Everybody who is medically suited to receive a vaccination against Covid-19 should get such a vaccination,Abortion should be illegal,I am politically oriented towards the left,Tue Aug 31 2021 22:21:29 GMT+0200 (Horário de Verão da Europa Central),1630441289585,NA,NA,1.3276166666666667,rating_choice,1
3224,NA,NA,63,,Graduated College,1630441369242,281,female,5,"Portuguese, english and german",NA,NA,NA,NA,NA,Call the police and report the robbery.,"Nothing, and let the robber be on their way.",What do you do?,+2,NA,NA,NA,NA,NA,Tue Aug 31 2021 22:21:29 GMT+0200 (Horário de Verão da Europa Central),1630441289585, <br/><br/>Approximately 60% of the other participants who agree with you on  your chosen issue chose to let the robber go. <br/><br/> Approximately 85% of participants in a previous study who disagreed with you on  your chosen issue chose to report the robber.,"Imagine you have witnessed someone rob a bank. However, you then saw them do something unexpected with the money. They donated it all to a run-down orphanage that would benefit greatly from the money. You must decide whether to call the police and report the robber or do nothing and leave the robber alone.",1.3276166666666667,moral_dilemma_2A,1
3224,NA,NA,63,,Graduated College,1630441369242,281,female,s1,"Portuguese, english and german",Participants chose which action they preferred.,"Due to a computer error, participants were not allocated equally to imagine performing the different actions.",No data was saved during the experiment.,The participants completed the experiment with their eyes closed.,I don't understand what is happening here.,NA,NA,"To ensure you understood the assignment, please click on which of the following statements is true.",Participants chose which action they preferred.,NA,NA,NA,NA,NA,Tue Aug 31 2021 22:21:29 GMT+0200 (Horário de Verão da Europa Central),1630441289585,NA,NA,1.3276166666666667,understanding_choice,1
3224,,10649,63,,Graduated College,1630441369242,281,female,NA,"Portuguese, english and german",NA,NA,NA,NA,NA,happy,sad,How do you feel about your choice?,1,NA,NA,NA,NA,NA,Tue Aug 31 2021 22:21:29 GMT+0200 (Horário de Verão da Europa Central),1630441289585,NA,NA,1.3276166666666667,emotions_fake,1
3215,NA,NA,26,,Graduated College,1630332959168,281,female,s3,"French, German",Animal Products,Protesting,Vaccine against Covid-19,Abortion,Political Orientation,NA,NA,Which out of these topics do you care about the most?,Vaccine against Covid-19,NA,NA,NA,NA,NA,Mon Aug 30 2021 16:15:33 GMT+0200 (Central European Summer Time),1630332933038,NA,NA,0.4355,sentence_customized,1
3215,NA,NA,26,,Graduated College,1630332959168,281,female,NA,"French, German",NA,NA,NA,NA,NA,Strongly Disagree,Strongly Agree,NA,+4,People should not buy or eat animal products,It is alright if political protesters use violence to enforce their demands,Everybody who is medically suited to receive a vaccination against Covid-19 should get such a vaccination,Abortion should be illegal,I am politically oriented towards the left,Mon Aug 30 2021 16:15:33 GMT+0200 (Central European Summer Time),1630332933038,NA,NA,0.4355,rating_choice,1
3215,NA,NA,26,,Graduated College,1630332959168,281,female,3,"French, German",NA,NA,NA,NA,NA,Call the police and report the robbery.,"Nothing, and let the robber be on their way.",What do you do?,-1,NA,NA,NA,NA,NA,Mon Aug 30 2021 16:15:33 GMT+0200 (Central European Summer Time),1630332933038, <br/><br/>Approximately 60% of the other participants who agree with you on your chosen issue chose to let the robber go.,"Imagine you have witnessed someone rob a bank. However, you then saw them do something unexpected with the money. They donated it all to a run-down orphanage that would benefit greatly from the money. You must decide whether to call the police and report the robber or do nothing and leave the robber alone.",0.4355,moral_dilemma_2A,1
3215,NA,NA,26,,Graduated College,1630332959168,281,female,s1,"French, German",Participants chose which action they preferred.,"Due to a computer error, participants were not allocated equally to imagine performing the different actions.",No data was saved during the experiment.,The participants completed the experiment with their eyes closed.,I don't understand what is happening here.,NA,NA,"To ensure you understood the assignment, please click on which of the following statements is true.",Participants chose which action they preferred.,NA,NA,NA,NA,NA,Mon Aug 30 2021 16:15:33 GMT+0200 (Central European Summer Time),1630332933038,NA,NA,0.4355,understanding_choice,1
3215,,6152,26,,Graduated College,1630332959168,281,female,NA,"French, German",NA,NA,NA,NA,NA,happy,sad,How do you feel about your choice?,5,NA,NA,NA,NA,NA,Mon Aug 30 2021 16:15:33 GMT+0200 (Central European Summer Time),1630332933038,NA,NA,0.4355,emotions_fake,1
3201,NA,NA,12,,Graduated High School,1630262346108,281,male,s1,English and Portuguese ,Animal Products,Protesting,Vaccine against Covid-19,Abortion,Political Orientation,NA,NA,Which out of these topics do you care about the most?,Animal Products,NA,NA,NA,NA,NA,Sun Aug 29 2021 19:14:39 GMT+0100 (BST),1630260879952,NA,NA,24.435933333333335,sentence_customized,1
3201,NA,NA,12,,Graduated High School,1630262346108,281,male,NA,English and Portuguese ,NA,NA,NA,NA,NA,Strongly Disagree,Strongly Agree,NA,-3,People should not buy or eat animal products,It is alright if political protesters use violence to enforce their demands,Everybody who is medically suited to receive a vaccination against Covid-19 should get such a vaccination,Abortion should be illegal,I am politically oriented towards the left,Sun Aug 29 2021 19:14:39 GMT+0100 (BST),1630260879952,NA,NA,24.435933333333335,rating_choice,1
3201,NA,NA,12,,Graduated High School,1630262346108,281,male,6,English and Portuguese ,NA,NA,NA,NA,NA,Call the police and report the robbery.,"Nothing, and let the robber be on their way.",What do you do?,+3,NA,NA,NA,NA,NA,Sun Aug 29 2021 19:14:39 GMT+0100 (BST),1630260879952, <br/><br/>Approximately 60% of the other participants who agree with you on  your chosen issue chose to report the robber. <br/><br/> Approximately 85% of participants in a previous study who disagreed with you on  your chosen issue chose to let the robber go.,"Imagine you have witnessed someone rob a bank. However, you then saw them do something unexpected with the money. They donated it all to a run-down orphanage that would benefit greatly from the money. You must decide whether to call the police and report the robber or do nothing and leave the robber alone.",24.435933333333335,moral_dilemma_2A,1
3201,NA,NA,12,,Graduated High School,1630262346108,281,male,s1,English and Portuguese ,Participants chose which action they preferred.,"Due to a computer error, participants were not allocated equally to imagine performing the different actions.",No data was saved during the experiment.,The participants completed the experiment with their eyes closed.,I don't understand what is happening here.,NA,NA,"To ensure you understood the assignment, please click on which of the following statements is true.",Participants chose which action they preferred.,NA,NA,NA,NA,NA,Sun Aug 29 2021 19:14:39 GMT+0100 (BST),1630260879952,NA,NA,24.435933333333335,understanding_choice,1
3201,,13647,12,,Graduated High School,1630262346108,281,male,NA,English and Portuguese ,NA,NA,NA,NA,NA,happy,sad,How do you feel about your choice?,1,NA,NA,NA,NA,NA,Sun Aug 29 2021 19:14:39 GMT+0100 (BST),1630260879952,NA,NA,24.435933333333335,emotions_fake,1
3200,NA,NA,67,,Graduated College,1630259919054,281,female,s5,Portuguese,Animal Products,Protesting,Vaccine against Covid-19,Abortion,Political Orientation,NA,NA,Which out of these topics do you care about the most?,Political Orientation,NA,NA,NA,NA,NA,Sun Aug 29 2021 18:47:36 GMT+0100 (BST),1630259256832,NA,NA,11.037033333333333,sentence_customized,1
3200,NA,NA,67,,Graduated College,1630259919054,281,female,NA,Portuguese,NA,NA,NA,NA,NA,Strongly Disagree,Strongly Agree,NA,+3,People should not buy or eat animal products,It is alright if political protesters use violence to enforce their demands,Everybody who is medically suited to receive a vaccination against Covid-19 should get such a vaccination,Abortion should be illegal,I am politically oriented towards the left,Sun Aug 29 2021 18:47:36 GMT+0100 (BST),1630259256832,NA,NA,11.037033333333333,rating_choice,1
3200,NA,NA,67,,Graduated College,1630259919054,281,female,4,Portuguese,NA,NA,NA,NA,NA,Call the police and report the robbery.,"Nothing, and let the robber be on their way.",What do you do?,+1,NA,NA,NA,NA,NA,Sun Aug 29 2021 18:47:36 GMT+0100 (BST),1630259256832, <br/><br/>60% of the other participants who agree with you on your chosen issue chose to report the robber.,"Imagine you have witnessed someone rob a bank. However, you then saw them do something unexpected with the money. They donated it all to a run-down orphanage that would benefit greatly from the money. You must decide whether to call the police and report the robber or do nothing and leave the robber alone.",11.037033333333333,moral_dilemma_2A,1
3200,NA,NA,67,,Graduated College,1630259919054,281,female,s1,Portuguese,Participants chose which action they preferred.,"Due to a computer error, participants were not allocated equally to imagine performing the different actions.",No data was saved during the experiment.,The participants completed the experiment with their eyes closed.,I don't understand what is happening here.,NA,NA,"To ensure you understood the assignment, please click on which of the following statements is true.",Participants chose which action they preferred.,NA,NA,NA,NA,NA,Sun Aug 29 2021 18:47:36 GMT+0100 (BST),1630259256832,NA,NA,11.037033333333333,understanding_choice,1
3200,,3498,67,,Graduated College,1630259919054,281,female,NA,Portuguese,NA,NA,NA,NA,NA,happy,sad,How do you feel about your choice?,1,NA,NA,NA,NA,NA,Sun Aug 29 2021 18:47:36 GMT+0100 (BST),1630259256832,NA,NA,11.037033333333333,emotions_fake,1
3199,NA,NA,66,,Higher Degree,1630257812243,281,male,s5,english,Animal Products,Protesting,Vaccine against Covid-19,Abortion,Political Orientation,NA,NA,Which out of these topics do you care about the most?,Political Orientation,NA,NA,NA,NA,NA,Sun Aug 29 2021 19:22:45 GMT+0200 (Central European Summer Time),1630257765269,NA,NA,0.7829,sentence_customized,1
3199,NA,NA,66,,Higher Degree,1630257812243,281,male,NA,english,NA,NA,NA,NA,NA,Strongly Disagree,Strongly Agree,NA,+4,People should not buy or eat animal products,It is alright if political protesters use violence to enforce their demands,Everybody who is medically suited to receive a vaccination against Covid-19 should get such a vaccination,Abortion should be illegal,I am politically oriented towards the left,Sun Aug 29 2021 19:22:45 GMT+0200 (Central European Summer Time),1630257765269,NA,NA,0.7829,rating_choice,1
3199,NA,NA,66,,Higher Degree,1630257812243,281,male,5,english,NA,NA,NA,NA,NA,Call the police and report the robbery.,"Nothing, and let the robber be on their way.",What do you do?,+2,NA,NA,NA,NA,NA,Sun Aug 29 2021 19:22:45 GMT+0200 (Central European Summer Time),1630257765269, <br/><br/>Approximately 60% of the other participants who agree with you on  your chosen issue chose to let the robber go. <br/><br/> Approximately 85% of participants in a previous study who disagreed with you on  your chosen issue chose to report the robber.,"Imagine you have witnessed someone rob a bank. However, you then saw them do something unexpected with the money. They donated it all to a run-down orphanage that would benefit greatly from the money. You must decide whether to call the police and report the robber or do nothing and leave the robber alone.",0.7829,moral_dilemma_2A,1
3199,NA,NA,66,,Higher Degree,1630257812243,281,male,s1,english,Participants chose which action they preferred.,"Due to a computer error, participants were not allocated equally to imagine performing the different actions.",No data was saved during the experiment.,The participants completed the experiment with their eyes closed.,I don't understand what is happening here.,NA,NA,"To ensure you understood the assignment, please click on which of the following statements is true.",Participants chose which action they preferred.,NA,NA,NA,NA,NA,Sun Aug 29 2021 19:22:45 GMT+0200 (Central European Summer Time),1630257765269,NA,NA,0.7829,understanding_choice,1
3199,,6815,66,,Higher Degree,1630257812243,281,male,NA,english,NA,NA,NA,NA,NA,happy,sad,How do you feel about your choice?,2,NA,NA,NA,NA,NA,Sun Aug 29 2021 19:22:45 GMT+0200 (Central European Summer Time),1630257765269,NA,NA,0.7829,emotions_fake,1
3198,NA,NA,63,,Higher Degree,1630257554557,281,female,s5,Português ,Animal Products,Protesting,Vaccine against Covid-19,Abortion,Political Orientation,NA,NA,Which out of these topics do you care about the most?,Political Orientation,NA,NA,NA,NA,NA,Sun Aug 29 2021 19:18:20 GMT+0200 (Central European Summer Time),1630257500905,NA,NA,0.8942,sentence_customized,1
3198,NA,NA,63,,Higher Degree,1630257554557,281,female,NA,Português ,NA,NA,NA,NA,NA,Strongly Disagree,Strongly Agree,NA,+4,People should not buy or eat animal products,It is alright if political protesters use violence to enforce their demands,Everybody who is medically suited to receive a vaccination against Covid-19 should get such a vaccination,Abortion should be illegal,I am politically oriented towards the left,Sun Aug 29 2021 19:18:20 GMT+0200 (Central European Summer Time),1630257500905,NA,NA,0.8942,rating_choice,1
3198,NA,NA,63,,Higher Degree,1630257554557,281,female,5,Português ,NA,NA,NA,NA,NA,Call the police and report the robbery.,"Nothing, and let the robber be on their way.",What do you do?,+2,NA,NA,NA,NA,NA,Sun Aug 29 2021 19:18:20 GMT+0200 (Central European Summer Time),1630257500905, <br/><br/>60% of the other participants who agree with you on your chosen issue chose to report the robber.,"Imagine you have witnessed someone rob a bank. However, you then saw them do something unexpected with the money. They donated it all to a run-down orphanage that would benefit greatly from the money. You must decide whether to call the police and report the robber or do nothing and leave the robber alone.",0.8942,moral_dilemma_2A,1
3198,NA,NA,63,,Higher Degree,1630257554557,281,female,s1,Português ,Participants chose which action they preferred.,"Due to a computer error, participants were not allocated equally to imagine performing the different actions.",No data was saved during the experiment.,The participants completed the experiment with their eyes closed.,I don't understand what is happening here.,NA,NA,"To ensure you understood the assignment, please click on which of the following statements is true.",Participants chose which action they preferred.,NA,NA,NA,NA,NA,Sun Aug 29 2021 19:18:20 GMT+0200 (Central European Summer Time),1630257500905,NA,NA,0.8942,understanding_choice,1
3198,,12178,63,,Higher Degree,1630257554557,281,female,NA,Português ,NA,NA,NA,NA,NA,happy,sad,How do you feel about your choice?,2,NA,NA,NA,NA,NA,Sun Aug 29 2021 19:18:20 GMT+0200 (Central European Summer Time),1630257500905,NA,NA,0.8942,emotions_fake,1
3111,NA,NA,,,,1630069812453,281,,s3,,Animal Products,Protesting,Vaccine against Covid-19,Abortion,Political Orientation,NA,NA,Which out of these topics do you care about the most?,Vaccine against Covid-19,NA,NA,NA,NA,NA,Fri Aug 27 2021 15:10:06 GMT+0200 (Central European Summer Time),1630069806605,NA,NA,0.09746666666666666,sentence_customized,1
3111,NA,NA,,,,1630069812453,281,,NA,,NA,NA,NA,NA,NA,Strongly Disagree,Strongly Agree,NA,+4,People should not buy or eat animal products,It is alright if political protesters use violence to enforce their demands,Everybody who is medically suited to receive a vaccination against Covid-19 should get such a vaccination,Abortion should be illegal,I am politically oriented towards the left,Fri Aug 27 2021 15:10:06 GMT+0200 (Central European Summer Time),1630069806605,NA,NA,0.09746666666666666,rating_choice,1
3111,NA,NA,,,,1630069812453,281,,5,,NA,NA,NA,NA,NA,Call the police and report the robbery.,"Nothing, and let the robber be on their way.",What do you do?,+2,NA,NA,NA,NA,NA,Fri Aug 27 2021 15:10:06 GMT+0200 (Central European Summer Time),1630069806605, <br/><br/>Approximately 60% of the other participants who agree with you on  your chosen issue chose to report the robber. <br/><br/> Approximately 85% of participants in a previous study who disagreed with you on  your chosen issue chose to let the robber go.,"Imagine you have witnessed someone rob a bank. However, you then saw them do something unexpected with the money. They donated it all to a run-down orphanage that would benefit greatly from the money. You must decide whether to call the police and report the robber or do nothing and leave the robber alone.",0.09746666666666666,moral_dilemma_2A,1
3111,NA,NA,,,,1630069812453,281,,s1,,Participants chose which action they preferred.,"Due to a computer error, participants were not allocated equally to imagine performing the different actions.",No data was saved during the experiment.,The participants completed the experiment with their eyes closed.,I don't understand what is happening here.,NA,NA,"To ensure you understood the assignment, please click on which of the following statements is true.",Participants chose which action they preferred.,NA,NA,NA,NA,NA,Fri Aug 27 2021 15:10:06 GMT+0200 (Central European Summer Time),1630069806605,NA,NA,0.09746666666666666,understanding_choice,1
3111,,7495,,,,1630069812453,281,,NA,,NA,NA,NA,NA,NA,happy,sad,How do you feel about your choice?,1,NA,NA,NA,NA,NA,Fri Aug 27 2021 15:10:06 GMT+0200 (Central European Summer Time),1630069806605,NA,NA,0.09746666666666666,emotions_fake,1
3106,NA,NA,20,,Graduated High School,1630068872748,281,female,s4,German,Animal Products,Protesting,Vaccine against Covid-19,Abortion,Political Orientation,NA,NA,Which out of these topics do you care about the most?,Abortion,NA,NA,NA,NA,NA,Fri Aug 27 2021 14:54:20 GMT+0200 (Mitteleuropäische Sommerzeit),1630068860257,NA,NA,0.20818333333333333,sentence_customized,1
3106,NA,NA,20,,Graduated High School,1630068872748,281,female,NA,German,NA,NA,NA,NA,NA,Strongly Disagree,Strongly Agree,NA,-5,People should not buy or eat animal products,It is alright if political protesters use violence to enforce their demands,Everybody who is medically suited to receive a vaccination against Covid-19 should get such a vaccination,Abortion should be illegal,I am politically oriented towards the left,Fri Aug 27 2021 14:54:20 GMT+0200 (Mitteleuropäische Sommerzeit),1630068860257,NA,NA,0.20818333333333333,rating_choice,1
3106,NA,NA,20,,Graduated High School,1630068872748,281,female,3,German,NA,NA,NA,NA,NA,Call the police and report the robbery.,"Nothing, and let the robber be on their way.",What do you do?,-1,NA,NA,NA,NA,NA,Fri Aug 27 2021 14:54:20 GMT+0200 (Mitteleuropäische Sommerzeit),1630068860257, <br/><br/>60% of the other participants who agree with you on your chosen issue chose to report the robber.,"Imagine you have witnessed someone rob a bank. However, you then saw them do something unexpected with the money. They donated it all to a run-down orphanage that would benefit greatly from the money. You must decide whether to call the police and report the robber or do nothing and leave the robber alone.",0.20818333333333333,moral_dilemma_2A,1
3106,NA,NA,20,,Graduated High School,1630068872748,281,female,s1,German,Participants chose which action they preferred.,"Due to a computer error, participants were not allocated equally to imagine performing the different actions.",No data was saved during the experiment.,The participants completed the experiment with their eyes closed.,I don't understand what is happening here.,NA,NA,"To ensure you understood the assignment, please click on which of the following statements is true.",Participants chose which action they preferred.,NA,NA,NA,NA,NA,Fri Aug 27 2021 14:54:20 GMT+0200 (Mitteleuropäische Sommerzeit),1630068860257,NA,NA,0.20818333333333333,understanding_choice,1
3106,,4707,20,,Graduated High School,1630068872748,281,female,NA,German,NA,NA,NA,NA,NA,happy,sad,How do you feel about your choice?,4,NA,NA,NA,NA,NA,Fri Aug 27 2021 14:54:20 GMT+0200 (Mitteleuropäische Sommerzeit),1630068860257,NA,NA,0.20818333333333333,emotions_fake,1
3094,NA,NA,23,,Graduated College,1630067963627,281,male,s1,"English, Kannada",Animal Products,Protesting,Vaccine against Covid-19,Abortion,Political Orientation,NA,NA,Which out of these topics do you care about the most?,Animal Products,NA,NA,NA,NA,NA,Fri Aug 27 2021 08:38:36 GMT-0400 (Eastern Daylight Time),1630067916621,NA,NA,0.7834333333333333,sentence_customized,1
3094,NA,NA,23,,Graduated College,1630067963627,281,male,NA,"English, Kannada",NA,NA,NA,NA,NA,Strongly Disagree,Strongly Agree,NA,+1,People should not buy or eat animal products,It is alright if political protesters use violence to enforce their demands,Everybody who is medically suited to receive a vaccination against Covid-19 should get such a vaccination,Abortion should be illegal,I am politically oriented towards the left,Fri Aug 27 2021 08:38:36 GMT-0400 (Eastern Daylight Time),1630067916621,NA,NA,0.7834333333333333,rating_choice,1
3094,NA,NA,23,,Graduated College,1630067963627,281,male,6,"English, Kannada",NA,NA,NA,NA,NA,Call the police and report the robbery.,"Nothing, and let the robber be on their way.",What do you do?,+3,NA,NA,NA,NA,NA,Fri Aug 27 2021 08:38:36 GMT-0400 (Eastern Daylight Time),1630067916621, <br/><br/>Approximately 60% of the other participants who agree with you on  your chosen issue chose to report the robber. <br/><br/> Approximately 85% of participants in a previous study who disagreed with you on  your chosen issue chose to let the robber go.,"Imagine you have witnessed someone rob a bank. However, you then saw them do something unexpected with the money. They donated it all to a run-down orphanage that would benefit greatly from the money. You must decide whether to call the police and report the robber or do nothing and leave the robber alone.",0.7834333333333333,moral_dilemma_2A,1
3094,NA,NA,23,,Graduated College,1630067963627,281,male,s1,"English, Kannada",Participants chose which action they preferred.,"Due to a computer error, participants were not allocated equally to imagine performing the different actions.",No data was saved during the experiment.,The participants completed the experiment with their eyes closed.,I don't understand what is happening here.,NA,NA,"To ensure you understood the assignment, please click on which of the following statements is true.",Participants chose which action they preferred.,NA,NA,NA,NA,NA,Fri Aug 27 2021 08:38:36 GMT-0400 (Eastern Daylight Time),1630067916621,NA,NA,0.7834333333333333,understanding_choice,1
3094,,4423,23,,Graduated College,1630067963627,281,male,NA,"English, Kannada",NA,NA,NA,NA,NA,happy,sad,How do you feel about your choice?,2,NA,NA,NA,NA,NA,Fri Aug 27 2021 08:38:36 GMT-0400 (Eastern Daylight Time),1630067916621,NA,NA,0.7834333333333333,emotions_fake,1
3072,NA,NA,22,,Graduated High School,1630057536092,281,divers,s2,German,Animal Products,Protesting,Vaccine against Covid-19,Abortion,Political Orientation,NA,NA,Which out of these topics do you care about the most?,Protesting,NA,NA,NA,NA,NA,Fri Aug 27 2021 11:45:01 GMT+0200 (Mitteleuropäische Sommerzeit),1630057501793,NA,NA,0.57165,sentence_customized,1
3072,NA,NA,22,,Graduated High School,1630057536092,281,divers,NA,German,NA,NA,NA,NA,NA,Strongly Disagree,Strongly Agree,NA,+2,People should not buy or eat animal products,It is alright if political protesters use violence to enforce their demands,Everybody who is medically suited to receive a vaccination against Covid-19 should get such a vaccination,Abortion should be illegal,I am politically oriented towards the left,Fri Aug 27 2021 11:45:01 GMT+0200 (Mitteleuropäische Sommerzeit),1630057501793,NA,NA,0.57165,rating_choice,1
3072,NA,NA,22,,Graduated High School,1630057536092,281,divers,6,German,NA,NA,NA,NA,NA,Call the police and report the robbery.,"Nothing, and let the robber be on their way.",What do you do?,+3,NA,NA,NA,NA,NA,Fri Aug 27 2021 11:45:01 GMT+0200 (Mitteleuropäische Sommerzeit),1630057501793, <br/><br/>60% of the other participants who agree with you on your chosen issue chose to report the robber.,"Imagine you have witnessed someone rob a bank. However, you then saw them do something unexpected with the money. They donated it all to a run-down orphanage that would benefit greatly from the money. You must decide whether to call the police and report the robber or do nothing and leave the robber alone.",0.57165,moral_dilemma_2A,1
3072,NA,NA,22,,Graduated High School,1630057536092,281,divers,s1,German,Participants chose which action they preferred.,"Due to a computer error, participants were not allocated equally to imagine performing the different actions.",No data was saved during the experiment.,The participants completed the experiment with their eyes closed.,I don't understand what is happening here.,NA,NA,"To ensure you understood the assignment, please click on which of the following statements is true.",Participants chose which action they preferred.,NA,NA,NA,NA,NA,Fri Aug 27 2021 11:45:01 GMT+0200 (Mitteleuropäische Sommerzeit),1630057501793,NA,NA,0.57165,understanding_choice,1
3072,,4557,22,,Graduated High School,1630057536092,281,divers,NA,German,NA,NA,NA,NA,NA,happy,sad,How do you feel about your choice?,1,NA,NA,NA,NA,NA,Fri Aug 27 2021 11:45:01 GMT+0200 (Mitteleuropäische Sommerzeit),1630057501793,NA,NA,0.57165,emotions_fake,1
3069,NA,NA,27,,Graduated College,1630057152172,281,male,s3,german,Animal Products,Protesting,Vaccine against Covid-19,Abortion,Political Orientation,NA,NA,Which out of these topics do you care about the most?,Vaccine against Covid-19,NA,NA,NA,NA,NA,Fri Aug 27 2021 11:38:17 GMT+0200 (Mitteleuropäische Sommerzeit),1630057097882,NA,NA,0.9048333333333334,sentence_customized,1
3069,NA,NA,27,,Graduated College,1630057152172,281,male,NA,german,NA,NA,NA,NA,NA,Strongly Disagree,Strongly Agree,NA,+5,People should not buy or eat animal products,It is alright if political protesters use violence to enforce their demands,Everybody who is medically suited to receive a vaccination against Covid-19 should get such a vaccination,Abortion should be illegal,I am politically oriented towards the left,Fri Aug 27 2021 11:38:17 GMT+0200 (Mitteleuropäische Sommerzeit),1630057097882,NA,NA,0.9048333333333334,rating_choice,1
3069,NA,NA,27,,Graduated College,1630057152172,281,male,6,german,NA,NA,NA,NA,NA,Call the police and report the robbery.,"Nothing, and let the robber be on their way.",What do you do?,+3,NA,NA,NA,NA,NA,Fri Aug 27 2021 11:38:17 GMT+0200 (Mitteleuropäische Sommerzeit),1630057097882, <br/><br/>60% of the other participants who agree with you on your chosen issue chose to report the robber.,"Imagine you have witnessed someone rob a bank. However, you then saw them do something unexpected with the money. They donated it all to a run-down orphanage that would benefit greatly from the money. You must decide whether to call the police and report the robber or do nothing and leave the robber alone.",0.9048333333333334,moral_dilemma_2A,1
3069,NA,NA,27,,Graduated College,1630057152172,281,male,s1,german,Participants chose which action they preferred.,"Due to a computer error, participants were not allocated equally to imagine performing the different actions.",No data was saved during the experiment.,The participants completed the experiment with their eyes closed.,I don't understand what is happening here.,NA,NA,"To ensure you understood the assignment, please click on which of the following statements is true.",Participants chose which action they preferred.,NA,NA,NA,NA,NA,Fri Aug 27 2021 11:38:17 GMT+0200 (Mitteleuropäische Sommerzeit),1630057097882,NA,NA,0.9048333333333334,understanding_choice,1
3069,,3880,27,,Graduated College,1630057152172,281,male,NA,german,NA,NA,NA,NA,NA,happy,sad,How do you feel about your choice?,1,NA,NA,NA,NA,NA,Fri Aug 27 2021 11:38:17 GMT+0200 (Mitteleuropäische Sommerzeit),1630057097882,NA,NA,0.9048333333333334,emotions_fake,1
3068,NA,NA,26,,Graduated High School,1630057013691,281,female,s3,German ,Animal Products,Protesting,Vaccine against Covid-19,Abortion,Political Orientation,NA,NA,Which out of these topics do you care about the most?,Vaccine against Covid-19,NA,NA,NA,NA,NA,Fri Aug 27 2021 11:36:01 GMT+0200 (CEST),1630056961974,NA,NA,0.86195,sentence_customized,1
3068,NA,NA,26,,Graduated High School,1630057013691,281,female,NA,German ,NA,NA,NA,NA,NA,Strongly Disagree,Strongly Agree,NA,+5,People should not buy or eat animal products,It is alright if political protesters use violence to enforce their demands,Everybody who is medically suited to receive a vaccination against Covid-19 should get such a vaccination,Abortion should be illegal,I am politically oriented towards the left,Fri Aug 27 2021 11:36:01 GMT+0200 (CEST),1630056961974,NA,NA,0.86195,rating_choice,1
3068,NA,NA,26,,Graduated High School,1630057013691,281,female,4,German ,NA,NA,NA,NA,NA,Call the police and report the robbery.,"Nothing, and let the robber be on their way.",What do you do?,+1,NA,NA,NA,NA,NA,Fri Aug 27 2021 11:36:01 GMT+0200 (CEST),1630056961974, <br/><br/>60% of the other participants who agree with you on your chosen issue chose to report the robber.,"Imagine you have witnessed someone rob a bank. However, you then saw them do something unexpected with the money. They donated it all to a run-down orphanage that would benefit greatly from the money. You must decide whether to call the police and report the robber or do nothing and leave the robber alone.",0.86195,moral_dilemma_2A,1
3068,NA,NA,26,,Graduated High School,1630057013691,281,female,s1,German ,Participants chose which action they preferred.,"Due to a computer error, participants were not allocated equally to imagine performing the different actions.",No data was saved during the experiment.,The participants completed the experiment with their eyes closed.,I don't understand what is happening here.,NA,NA,"To ensure you understood the assignment, please click on which of the following statements is true.",Participants chose which action they preferred.,NA,NA,NA,NA,NA,Fri Aug 27 2021 11:36:01 GMT+0200 (CEST),1630056961974,NA,NA,0.86195,understanding_choice,1
3068,,6872,26,,Graduated High School,1630057013691,281,female,NA,German ,NA,NA,NA,NA,NA,happy,sad,How do you feel about your choice?,4,NA,NA,NA,NA,NA,Fri Aug 27 2021 11:36:01 GMT+0200 (CEST),1630056961974,NA,NA,0.86195,emotions_fake,1
3057,NA,NA,23,,Graduated High School,1630039219584,281,male,s3,German,Animal Products,Protesting,Vaccine against Covid-19,Abortion,Political Orientation,NA,NA,Which out of these topics do you care about the most?,Vaccine against Covid-19,NA,NA,NA,NA,NA,Fri Aug 27 2021 06:39:27 GMT+0200 (Mitteleuropäische Sommerzeit),1630039167671,NA,NA,0.8652166666666666,sentence_customized,1
3057,NA,NA,23,,Graduated High School,1630039219584,281,male,NA,German,NA,NA,NA,NA,NA,Strongly Disagree,Strongly Agree,NA,+4,People should not buy or eat animal products,It is alright if political protesters use violence to enforce their demands,Everybody who is medically suited to receive a vaccination against Covid-19 should get such a vaccination,Abortion should be illegal,I am politically oriented towards the left,Fri Aug 27 2021 06:39:27 GMT+0200 (Mitteleuropäische Sommerzeit),1630039167671,NA,NA,0.8652166666666666,rating_choice,1
3057,NA,NA,23,,Graduated High School,1630039219584,281,male,3,German,NA,NA,NA,NA,NA,Call the police and report the robbery.,"Nothing, and let the robber be on their way.",What do you do?,-1,NA,NA,NA,NA,NA,Fri Aug 27 2021 06:39:27 GMT+0200 (Mitteleuropäische Sommerzeit),1630039167671, <br/><br/>Approximately 60% of the other participants who agree with you on  your chosen issue chose to let the robber go. <br/><br/> Approximately 85% of participants in a previous study who disagreed with you on  your chosen issue chose to report the robber.,"Imagine you have witnessed someone rob a bank. However, you then saw them do something unexpected with the money. They donated it all to a run-down orphanage that would benefit greatly from the money. You must decide whether to call the police and report the robber or do nothing and leave the robber alone.",0.8652166666666666,moral_dilemma_2A,1
3057,NA,NA,23,,Graduated High School,1630039219584,281,male,s1,German,Participants chose which action they preferred.,"Due to a computer error, participants were not allocated equally to imagine performing the different actions.",No data was saved during the experiment.,The participants completed the experiment with their eyes closed.,I don't understand what is happening here.,NA,NA,"To ensure you understood the assignment, please click on which of the following statements is true.",Participants chose which action they preferred.,NA,NA,NA,NA,NA,Fri Aug 27 2021 06:39:27 GMT+0200 (Mitteleuropäische Sommerzeit),1630039167671,NA,NA,0.8652166666666666,understanding_choice,1
3057,,6167,23,,Graduated High School,1630039219584,281,male,NA,German,NA,NA,NA,NA,NA,happy,sad,How do you feel about your choice?,4,NA,NA,NA,NA,NA,Fri Aug 27 2021 06:39:27 GMT+0200 (Mitteleuropäische Sommerzeit),1630039167671,NA,NA,0.8652166666666666,emotions_fake,1
3056,NA,NA,23,,Graduated College,1630014800347,281,female,s1,German,Animal Products,Protesting,Vaccine against Covid-19,Abortion,Political Orientation,NA,NA,Which out of these topics do you care about the most?,Animal Products,NA,NA,NA,NA,NA,Thu Aug 26 2021 23:52:57 GMT+0200 (Central European Summer Time),1630014777635,NA,NA,0.37853333333333333,sentence_customized,1
3056,NA,NA,23,,Graduated College,1630014800347,281,female,NA,German,NA,NA,NA,NA,NA,Strongly Disagree,Strongly Agree,NA,+5,People should not buy or eat animal products,It is alright if political protesters use violence to enforce their demands,Everybody who is medically suited to receive a vaccination against Covid-19 should get such a vaccination,Abortion should be illegal,I am politically oriented towards the left,Thu Aug 26 2021 23:52:57 GMT+0200 (Central European Summer Time),1630014777635,NA,NA,0.37853333333333333,rating_choice,1
3056,NA,NA,23,,Graduated College,1630014800347,281,female,6,German,NA,NA,NA,NA,NA,Call the police and report the robbery.,"Nothing, and let the robber be on their way.",What do you do?,+3,NA,NA,NA,NA,NA,Thu Aug 26 2021 23:52:57 GMT+0200 (Central European Summer Time),1630014777635, <br/><br/>Approximately 60% of the other participants who agree with you on your chosen issue chose to let the robber go.,"Imagine you have witnessed someone rob a bank. However, you then saw them do something unexpected with the money. They donated it all to a run-down orphanage that would benefit greatly from the money. You must decide whether to call the police and report the robber or do nothing and leave the robber alone.",0.37853333333333333,moral_dilemma_2A,1
3056,NA,NA,23,,Graduated College,1630014800347,281,female,s1,German,Participants chose which action they preferred.,"Due to a computer error, participants were not allocated equally to imagine performing the different actions.",No data was saved during the experiment.,The participants completed the experiment with their eyes closed.,I don't understand what is happening here.,NA,NA,"To ensure you understood the assignment, please click on which of the following statements is true.",Participants chose which action they preferred.,NA,NA,NA,NA,NA,Thu Aug 26 2021 23:52:57 GMT+0200 (Central European Summer Time),1630014777635,NA,NA,0.37853333333333333,understanding_choice,1
3056,,2583,23,,Graduated College,1630014800347,281,female,NA,German,NA,NA,NA,NA,NA,happy,sad,How do you feel about your choice?,1,NA,NA,NA,NA,NA,Thu Aug 26 2021 23:52:57 GMT+0200 (Central European Summer Time),1630014777635,NA,NA,0.37853333333333333,emotions_fake,1
3054,NA,NA,18,,Graduated High School,1630013775994,281,male,s3,german,Animal Products,Protesting,Vaccine against Covid-19,Abortion,Political Orientation,NA,NA,Which out of these topics do you care about the most?,Vaccine against Covid-19,NA,NA,NA,NA,NA,Thu Aug 26 2021 23:35:51 GMT+0200 (Central European Summer Time),1630013751435,NA,NA,0.40931666666666666,sentence_customized,1
3054,NA,NA,18,,Graduated High School,1630013775994,281,male,NA,german,NA,NA,NA,NA,NA,Strongly Disagree,Strongly Agree,NA,+5,People should not buy or eat animal products,It is alright if political protesters use violence to enforce their demands,Everybody who is medically suited to receive a vaccination against Covid-19 should get such a vaccination,Abortion should be illegal,I am politically oriented towards the left,Thu Aug 26 2021 23:35:51 GMT+0200 (Central European Summer Time),1630013751435,NA,NA,0.40931666666666666,rating_choice,1
3054,NA,NA,18,,Graduated High School,1630013775994,281,male,1,german,NA,NA,NA,NA,NA,Call the police and report the robbery.,"Nothing, and let the robber be on their way.",What do you do?,-3,NA,NA,NA,NA,NA,Thu Aug 26 2021 23:35:51 GMT+0200 (Central European Summer Time),1630013751435, <br/><br/>Approximately 60% of the other participants who agree with you on your chosen issue chose to let the robber go.,"Imagine you have witnessed someone rob a bank. However, you then saw them do something unexpected with the money. They donated it all to a run-down orphanage that would benefit greatly from the money. You must decide whether to call the police and report the robber or do nothing and leave the robber alone.",0.40931666666666666,moral_dilemma_2A,1
3054,NA,NA,18,,Graduated High School,1630013775994,281,male,s5,german,Participants chose which action they preferred.,"Due to a computer error, participants were not allocated equally to imagine performing the different actions.",No data was saved during the experiment.,The participants completed the experiment with their eyes closed.,I don't understand what is happening here.,NA,NA,"To ensure you understood the assignment, please click on which of the following statements is true.",I don't understand what is happening here.,NA,NA,NA,NA,NA,Thu Aug 26 2021 23:35:51 GMT+0200 (Central European Summer Time),1630013751435,NA,NA,0.40931666666666666,understanding_choice,1
3054,,3751,18,,Graduated High School,1630013775994,281,male,NA,german,NA,NA,NA,NA,NA,happy,sad,How do you feel about your choice?,1,NA,NA,NA,NA,NA,Thu Aug 26 2021 23:35:51 GMT+0200 (Central European Summer Time),1630013751435,NA,NA,0.40931666666666666,emotions_fake,1
3044,NA,NA,19,,Graduated High School,1630002361951,281,female,s5,German,Animal Products,Protesting,Vaccine against Covid-19,Abortion,Political Orientation,NA,NA,Which out of these topics do you care about the most?,Political Orientation,NA,NA,NA,NA,NA,Thu Aug 26 2021 20:25:32 GMT+0200 (Mitteleuropäische Sommerzeit),1630002332614,NA,NA,0.48895,sentence_customized,1
3044,NA,NA,19,,Graduated High School,1630002361951,281,female,NA,German,NA,NA,NA,NA,NA,Strongly Disagree,Strongly Agree,NA,+5,People should not buy or eat animal products,It is alright if political protesters use violence to enforce their demands,Everybody who is medically suited to receive a vaccination against Covid-19 should get such a vaccination,Abortion should be illegal,I am politically oriented towards the left,Thu Aug 26 2021 20:25:32 GMT+0200 (Mitteleuropäische Sommerzeit),1630002332614,NA,NA,0.48895,rating_choice,1
3044,NA,NA,19,,Graduated High School,1630002361951,281,female,4,German,NA,NA,NA,NA,NA,Call the police and report the robbery.,"Nothing, and let the robber be on their way.",What do you do?,+1,NA,NA,NA,NA,NA,Thu Aug 26 2021 20:25:32 GMT+0200 (Mitteleuropäische Sommerzeit),1630002332614, <br/><br/>Approximately 60% of the other participants who agree with you on your chosen issue chose to let the robber go.,"Imagine you have witnessed someone rob a bank. However, you then saw them do something unexpected with the money. They donated it all to a run-down orphanage that would benefit greatly from the money. You must decide whether to call the police and report the robber or do nothing and leave the robber alone.",0.48895,moral_dilemma_2A,1
3044,NA,NA,19,,Graduated High School,1630002361951,281,female,s1,German,Participants chose which action they preferred.,"Due to a computer error, participants were not allocated equally to imagine performing the different actions.",No data was saved during the experiment.,The participants completed the experiment with their eyes closed.,I don't understand what is happening here.,NA,NA,"To ensure you understood the assignment, please click on which of the following statements is true.",Participants chose which action they preferred.,NA,NA,NA,NA,NA,Thu Aug 26 2021 20:25:32 GMT+0200 (Mitteleuropäische Sommerzeit),1630002332614,NA,NA,0.48895,understanding_choice,1
3044,,6947,19,,Graduated High School,1630002361951,281,female,NA,German,NA,NA,NA,NA,NA,happy,sad,How do you feel about your choice?,6,NA,NA,NA,NA,NA,Thu Aug 26 2021 20:25:32 GMT+0200 (Mitteleuropäische Sommerzeit),1630002332614,NA,NA,0.48895,emotions_fake,1
3042,NA,NA,25,,Graduated College,1630000229762,281,male,s3,German,Animal Products,Protesting,Vaccine against Covid-19,Abortion,Political Orientation,NA,NA,Which out of these topics do you care about the most?,Vaccine against Covid-19,NA,NA,NA,NA,NA,Thu Aug 26 2021 19:50:16 GMT+0200 (Central European Summer Time),1630000216855,NA,NA,0.21511666666666668,sentence_customized,1
3042,NA,NA,25,,Graduated College,1630000229762,281,male,NA,German,NA,NA,NA,NA,NA,Strongly Disagree,Strongly Agree,NA,+4,People should not buy or eat animal products,It is alright if political protesters use violence to enforce their demands,Everybody who is medically suited to receive a vaccination against Covid-19 should get such a vaccination,Abortion should be illegal,I am politically oriented towards the left,Thu Aug 26 2021 19:50:16 GMT+0200 (Central European Summer Time),1630000216855,NA,NA,0.21511666666666668,rating_choice,1
3042,NA,NA,25,,Graduated College,1630000229762,281,male,5,German,NA,NA,NA,NA,NA,Call the police and report the robbery.,"Nothing, and let the robber be on their way.",What do you do?,+2,NA,NA,NA,NA,NA,Thu Aug 26 2021 19:50:16 GMT+0200 (Central European Summer Time),1630000216855, <br/><br/>Approximately 60% of the other participants who agree with you on  your chosen issue chose to report the robber. <br/><br/> Approximately 85% of participants in a previous study who disagreed with you on  your chosen issue chose to let the robber go.,"Imagine you have witnessed someone rob a bank. However, you then saw them do something unexpected with the money. They donated it all to a run-down orphanage that would benefit greatly from the money. You must decide whether to call the police and report the robber or do nothing and leave the robber alone.",0.21511666666666668,moral_dilemma_2A,1
3042,NA,NA,25,,Graduated College,1630000229762,281,male,s1,German,Participants chose which action they preferred.,"Due to a computer error, participants were not allocated equally to imagine performing the different actions.",No data was saved during the experiment.,The participants completed the experiment with their eyes closed.,I don't understand what is happening here.,NA,NA,"To ensure you understood the assignment, please click on which of the following statements is true.",Participants chose which action they preferred.,NA,NA,NA,NA,NA,Thu Aug 26 2021 19:50:16 GMT+0200 (Central European Summer Time),1630000216855,NA,NA,0.21511666666666668,understanding_choice,1
3042,,6193,25,,Graduated College,1630000229762,281,male,NA,German,NA,NA,NA,NA,NA,happy,sad,How do you feel about your choice?,1,NA,NA,NA,NA,NA,Thu Aug 26 2021 19:50:16 GMT+0200 (Central European Summer Time),1630000216855,NA,NA,0.21511666666666668,emotions_fake,1
3039,NA,NA,21,,Graduated High School,1629998790372,281,female,s4,Italian and Spanish,Animal Products,Protesting,Vaccine against Covid-19,Abortion,Political Orientation,NA,NA,Which out of these topics do you care about the most?,Abortion,NA,NA,NA,NA,NA,Thu Aug 26 2021 19:25:59 GMT+0200 (Central European Summer Time),1629998759460,NA,NA,0.5152,sentence_customized,1
3039,NA,NA,21,,Graduated High School,1629998790372,281,female,NA,Italian and Spanish,NA,NA,NA,NA,NA,Strongly Disagree,Strongly Agree,NA,-5,People should not buy or eat animal products,It is alright if political protesters use violence to enforce their demands,Everybody who is medically suited to receive a vaccination against Covid-19 should get such a vaccination,Abortion should be illegal,I am politically oriented towards the left,Thu Aug 26 2021 19:25:59 GMT+0200 (Central European Summer Time),1629998759460,NA,NA,0.5152,rating_choice,1
3039,NA,NA,21,,Graduated High School,1629998790372,281,female,3,Italian and Spanish,NA,NA,NA,NA,NA,Call the police and report the robbery.,"Nothing, and let the robber be on their way.",What do you do?,-1,NA,NA,NA,NA,NA,Thu Aug 26 2021 19:25:59 GMT+0200 (Central European Summer Time),1629998759460, <br/><br/>Approximately 60% of the other participants who agree with you on your chosen issue chose to let the robber go.,"Imagine you have witnessed someone rob a bank. However, you then saw them do something unexpected with the money. They donated it all to a run-down orphanage that would benefit greatly from the money. You must decide whether to call the police and report the robber or do nothing and leave the robber alone.",0.5152,moral_dilemma_2A,1
3039,NA,NA,21,,Graduated High School,1629998790372,281,female,s1,Italian and Spanish,Participants chose which action they preferred.,"Due to a computer error, participants were not allocated equally to imagine performing the different actions.",No data was saved during the experiment.,The participants completed the experiment with their eyes closed.,I don't understand what is happening here.,NA,NA,"To ensure you understood the assignment, please click on which of the following statements is true.",Participants chose which action they preferred.,NA,NA,NA,NA,NA,Thu Aug 26 2021 19:25:59 GMT+0200 (Central European Summer Time),1629998759460,NA,NA,0.5152,understanding_choice,1
3039,,3926,21,,Graduated High School,1629998790372,281,female,NA,Italian and Spanish,NA,NA,NA,NA,NA,happy,sad,How do you feel about your choice?,4,NA,NA,NA,NA,NA,Thu Aug 26 2021 19:25:59 GMT+0200 (Central European Summer Time),1629998759460,NA,NA,0.5152,emotions_fake,1
3029,NA,NA,22,,Graduated High School,1629991881276,281,male,s1,German,Animal Products,Protesting,Vaccine against Covid-19,Abortion,Political Orientation,NA,NA,Which out of these topics do you care about the most?,Animal Products,NA,NA,NA,NA,NA,Thu Aug 26 2021 17:30:52 GMT+0200 (Central European Summer Time),1629991852944,NA,NA,0.4722,sentence_customized,1
3029,NA,NA,22,,Graduated High School,1629991881276,281,male,NA,German,NA,NA,NA,NA,NA,Strongly Disagree,Strongly Agree,NA,0,People should not buy or eat animal products,It is alright if political protesters use violence to enforce their demands,Everybody who is medically suited to receive a vaccination against Covid-19 should get such a vaccination,Abortion should be illegal,I am politically oriented towards the left,Thu Aug 26 2021 17:30:52 GMT+0200 (Central European Summer Time),1629991852944,NA,NA,0.4722,rating_choice,1
3029,NA,NA,22,,Graduated High School,1629991881276,281,male,6,German,NA,NA,NA,NA,NA,Call the police and report the robbery.,"Nothing, and let the robber be on their way.",What do you do?,+3,NA,NA,NA,NA,NA,Thu Aug 26 2021 17:30:52 GMT+0200 (Central European Summer Time),1629991852944, <br/><br/>Approximately 60% of the other participants who agree with you on  your chosen issue chose to report the robber. <br/><br/> Approximately 85% of participants in a previous study who disagreed with you on  your chosen issue chose to let the robber go.,"Imagine you have witnessed someone rob a bank. However, you then saw them do something unexpected with the money. They donated it all to a run-down orphanage that would benefit greatly from the money. You must decide whether to call the police and report the robber or do nothing and leave the robber alone.",0.4722,moral_dilemma_2A,1
3029,NA,NA,22,,Graduated High School,1629991881276,281,male,s1,German,Participants chose which action they preferred.,"Due to a computer error, participants were not allocated equally to imagine performing the different actions.",No data was saved during the experiment.,The participants completed the experiment with their eyes closed.,I don't understand what is happening here.,NA,NA,"To ensure you understood the assignment, please click on which of the following statements is true.",Participants chose which action they preferred.,NA,NA,NA,NA,NA,Thu Aug 26 2021 17:30:52 GMT+0200 (Central European Summer Time),1629991852944,NA,NA,0.4722,understanding_choice,1
3029,,4804,22,,Graduated High School,1629991881276,281,male,NA,German,NA,NA,NA,NA,NA,happy,sad,How do you feel about your choice?,2,NA,NA,NA,NA,NA,Thu Aug 26 2021 17:30:52 GMT+0200 (Central European Summer Time),1629991852944,NA,NA,0.4722,emotions_fake,1
3025,NA,NA,24,,Graduated High School,1629990383080,281,female,s3,German,Animal Products,Protesting,Vaccine against Covid-19,Abortion,Political Orientation,NA,NA,Which out of these topics do you care about the most?,Vaccine against Covid-19,NA,NA,NA,NA,NA,Thu Aug 26 2021 17:05:48 GMT+0200 (Mitteleuropäische Sommerzeit),1629990348775,NA,NA,0.57175,sentence_customized,1
3025,NA,NA,24,,Graduated High School,1629990383080,281,female,NA,German,NA,NA,NA,NA,NA,Strongly Disagree,Strongly Agree,NA,+5,People should not buy or eat animal products,It is alright if political protesters use violence to enforce their demands,Everybody who is medically suited to receive a vaccination against Covid-19 should get such a vaccination,Abortion should be illegal,I am politically oriented towards the left,Thu Aug 26 2021 17:05:48 GMT+0200 (Mitteleuropäische Sommerzeit),1629990348775,NA,NA,0.57175,rating_choice,1
3025,NA,NA,24,,Graduated High School,1629990383080,281,female,2,German,NA,NA,NA,NA,NA,Call the police and report the robbery.,"Nothing, and let the robber be on their way.",What do you do?,-2,NA,NA,NA,NA,NA,Thu Aug 26 2021 17:05:48 GMT+0200 (Mitteleuropäische Sommerzeit),1629990348775, <br/><br/>Approximately 60% of the other participants who agree with you on  your chosen issue chose to let the robber go. <br/><br/> Approximately 85% of participants in a previous study who disagreed with you on  your chosen issue chose to report the robber.,"Imagine you have witnessed someone rob a bank. However, you then saw them do something unexpected with the money. They donated it all to a run-down orphanage that would benefit greatly from the money. You must decide whether to call the police and report the robber or do nothing and leave the robber alone.",0.57175,moral_dilemma_2A,1
3025,NA,NA,24,,Graduated High School,1629990383080,281,female,s1,German,Participants chose which action they preferred.,"Due to a computer error, participants were not allocated equally to imagine performing the different actions.",No data was saved during the experiment.,The participants completed the experiment with their eyes closed.,I don't understand what is happening here.,NA,NA,"To ensure you understood the assignment, please click on which of the following statements is true.",Participants chose which action they preferred.,NA,NA,NA,NA,NA,Thu Aug 26 2021 17:05:48 GMT+0200 (Mitteleuropäische Sommerzeit),1629990348775,NA,NA,0.57175,understanding_choice,1
3025,,5397,24,,Graduated High School,1629990383080,281,female,NA,German,NA,NA,NA,NA,NA,happy,sad,How do you feel about your choice?,4,NA,NA,NA,NA,NA,Thu Aug 26 2021 17:05:48 GMT+0200 (Mitteleuropäische Sommerzeit),1629990348775,NA,NA,0.57175,emotions_fake,1
3024,NA,NA,22,,Graduated College,1629989728973,281,female,s3,German ,Animal Products,Protesting,Vaccine against Covid-19,Abortion,Political Orientation,NA,NA,Which out of these topics do you care about the most?,Vaccine against Covid-19,NA,NA,NA,NA,NA,Thu Aug 26 2021 16:55:02 GMT+0200 (Mitteleuropäische Sommerzeit),1629989702951,NA,NA,0.4337,sentence_customized,1
3024,NA,NA,22,,Graduated College,1629989728973,281,female,NA,German ,NA,NA,NA,NA,NA,Strongly Disagree,Strongly Agree,NA,+5,People should not buy or eat animal products,It is alright if political protesters use violence to enforce their demands,Everybody who is medically suited to receive a vaccination against Covid-19 should get such a vaccination,Abortion should be illegal,I am politically oriented towards the left,Thu Aug 26 2021 16:55:02 GMT+0200 (Mitteleuropäische Sommerzeit),1629989702951,NA,NA,0.4337,rating_choice,1
3024,NA,NA,22,,Graduated College,1629989728973,281,female,4,German ,NA,NA,NA,NA,NA,Call the police and report the robbery.,"Nothing, and let the robber be on their way.",What do you do?,+1,NA,NA,NA,NA,NA,Thu Aug 26 2021 16:55:02 GMT+0200 (Mitteleuropäische Sommerzeit),1629989702951, <br/><br/>Approximately 60% of the other participants who agree with you on  your chosen issue chose to let the robber go. <br/><br/> Approximately 85% of participants in a previous study who disagreed with you on  your chosen issue chose to report the robber.,"Imagine you have witnessed someone rob a bank. However, you then saw them do something unexpected with the money. They donated it all to a run-down orphanage that would benefit greatly from the money. You must decide whether to call the police and report the robber or do nothing and leave the robber alone.",0.4337,moral_dilemma_2A,1
3024,NA,NA,22,,Graduated College,1629989728973,281,female,s1,German ,Participants chose which action they preferred.,"Due to a computer error, participants were not allocated equally to imagine performing the different actions.",No data was saved during the experiment.,The participants completed the experiment with their eyes closed.,I don't understand what is happening here.,NA,NA,"To ensure you understood the assignment, please click on which of the following statements is true.",Participants chose which action they preferred.,NA,NA,NA,NA,NA,Thu Aug 26 2021 16:55:02 GMT+0200 (Mitteleuropäische Sommerzeit),1629989702951,NA,NA,0.4337,understanding_choice,1
3024,,5343,22,,Graduated College,1629989728973,281,female,NA,German ,NA,NA,NA,NA,NA,happy,sad,How do you feel about your choice?,3,NA,NA,NA,NA,NA,Thu Aug 26 2021 16:55:02 GMT+0200 (Mitteleuropäische Sommerzeit),1629989702951,NA,NA,0.4337,emotions_fake,1
3023,NA,NA,21,,Graduated High School,1629989610697,281,female,s4,german,Animal Products,Protesting,Vaccine against Covid-19,Abortion,Political Orientation,NA,NA,Which out of these topics do you care about the most?,Abortion,NA,NA,NA,NA,NA,Thu Aug 26 2021 16:53:11 GMT+0200 (CEST),1629989591114,NA,NA,0.32638333333333336,sentence_customized,1
3023,NA,NA,21,,Graduated High School,1629989610697,281,female,NA,german,NA,NA,NA,NA,NA,Strongly Disagree,Strongly Agree,NA,-5,People should not buy or eat animal products,It is alright if political protesters use violence to enforce their demands,Everybody who is medically suited to receive a vaccination against Covid-19 should get such a vaccination,Abortion should be illegal,I am politically oriented towards the left,Thu Aug 26 2021 16:53:11 GMT+0200 (CEST),1629989591114,NA,NA,0.32638333333333336,rating_choice,1
3023,NA,NA,21,,Graduated High School,1629989610697,281,female,5,german,NA,NA,NA,NA,NA,Call the police and report the robbery.,"Nothing, and let the robber be on their way.",What do you do?,+2,NA,NA,NA,NA,NA,Thu Aug 26 2021 16:53:11 GMT+0200 (CEST),1629989591114, <br/><br/>Approximately 60% of the other participants who agree with you on  your chosen issue chose to let the robber go. <br/><br/> Approximately 85% of participants in a previous study who disagreed with you on  your chosen issue chose to report the robber.,"Imagine you have witnessed someone rob a bank. However, you then saw them do something unexpected with the money. They donated it all to a run-down orphanage that would benefit greatly from the money. You must decide whether to call the police and report the robber or do nothing and leave the robber alone.",0.32638333333333336,moral_dilemma_2A,1
3023,NA,NA,21,,Graduated High School,1629989610697,281,female,s1,german,Participants chose which action they preferred.,"Due to a computer error, participants were not allocated equally to imagine performing the different actions.",No data was saved during the experiment.,The participants completed the experiment with their eyes closed.,I don't understand what is happening here.,NA,NA,"To ensure you understood the assignment, please click on which of the following statements is true.",Participants chose which action they preferred.,NA,NA,NA,NA,NA,Thu Aug 26 2021 16:53:11 GMT+0200 (CEST),1629989591114,NA,NA,0.32638333333333336,understanding_choice,1
3023,,3362,21,,Graduated High School,1629989610697,281,female,NA,german,NA,NA,NA,NA,NA,happy,sad,How do you feel about your choice?,1,NA,NA,NA,NA,NA,Thu Aug 26 2021 16:53:11 GMT+0200 (CEST),1629989591114,NA,NA,0.32638333333333336,emotions_fake,1
3022,NA,NA,23,,Graduated College,1629988464924,281,female,s4,German,Animal Products,Protesting,Vaccine against Covid-19,Abortion,Political Orientation,NA,NA,Which out of these topics do you care about the most?,Abortion,NA,NA,NA,NA,NA,Thu Aug 26 2021 16:33:46 GMT+0200 (CEST),1629988426849,NA,NA,0.6345833333333334,sentence_customized,1
3022,NA,NA,23,,Graduated College,1629988464924,281,female,NA,German,NA,NA,NA,NA,NA,Strongly Disagree,Strongly Agree,NA,-5,People should not buy or eat animal products,It is alright if political protesters use violence to enforce their demands,Everybody who is medically suited to receive a vaccination against Covid-19 should get such a vaccination,Abortion should be illegal,I am politically oriented towards the left,Thu Aug 26 2021 16:33:46 GMT+0200 (CEST),1629988426849,NA,NA,0.6345833333333334,rating_choice,1
3022,NA,NA,23,,Graduated College,1629988464924,281,female,5,German,NA,NA,NA,NA,NA,Call the police and report the robbery.,"Nothing, and let the robber be on their way.",What do you do?,+2,NA,NA,NA,NA,NA,Thu Aug 26 2021 16:33:46 GMT+0200 (CEST),1629988426849, <br/><br/>Approximately 60% of the other participants who agree with you on  your chosen issue chose to let the robber go. <br/><br/> Approximately 85% of participants in a previous study who disagreed with you on  your chosen issue chose to report the robber.,"Imagine you have witnessed someone rob a bank. However, you then saw them do something unexpected with the money. They donated it all to a run-down orphanage that would benefit greatly from the money. You must decide whether to call the police and report the robber or do nothing and leave the robber alone.",0.6345833333333334,moral_dilemma_2A,1
3022,NA,NA,23,,Graduated College,1629988464924,281,female,s1,German,Participants chose which action they preferred.,"Due to a computer error, participants were not allocated equally to imagine performing the different actions.",No data was saved during the experiment.,The participants completed the experiment with their eyes closed.,I don't understand what is happening here.,NA,NA,"To ensure you understood the assignment, please click on which of the following statements is true.",Participants chose which action they preferred.,NA,NA,NA,NA,NA,Thu Aug 26 2021 16:33:46 GMT+0200 (CEST),1629988426849,NA,NA,0.6345833333333334,understanding_choice,1
3022,,5053,23,,Graduated College,1629988464924,281,female,NA,German,NA,NA,NA,NA,NA,happy,sad,How do you feel about your choice?,3,NA,NA,NA,NA,NA,Thu Aug 26 2021 16:33:46 GMT+0200 (CEST),1629988426849,NA,NA,0.6345833333333334,emotions_fake,1
3021,NA,NA,20,,Graduated High School,1629988149840,281,male,s3,German,Animal Products,Protesting,Vaccine against Covid-19,Abortion,Political Orientation,NA,NA,Which out of these topics do you care about the most?,Vaccine against Covid-19,NA,NA,NA,NA,NA,Thu Aug 26 2021 16:28:19 GMT+0200 (CEST),1629988099199,NA,NA,0.8440166666666666,sentence_customized,1
3021,NA,NA,20,,Graduated High School,1629988149840,281,male,NA,German,NA,NA,NA,NA,NA,Strongly Disagree,Strongly Agree,NA,+4,People should not buy or eat animal products,It is alright if political protesters use violence to enforce their demands,Everybody who is medically suited to receive a vaccination against Covid-19 should get such a vaccination,Abortion should be illegal,I am politically oriented towards the left,Thu Aug 26 2021 16:28:19 GMT+0200 (CEST),1629988099199,NA,NA,0.8440166666666666,rating_choice,1
3021,NA,NA,20,,Graduated High School,1629988149840,281,male,2,German,NA,NA,NA,NA,NA,Call the police and report the robbery.,"Nothing, and let the robber be on their way.",What do you do?,-2,NA,NA,NA,NA,NA,Thu Aug 26 2021 16:28:19 GMT+0200 (CEST),1629988099199, <br/><br/>Approximately 60% of the other participants who agree with you on  your chosen issue chose to report the robber. <br/><br/> Approximately 85% of participants in a previous study who disagreed with you on  your chosen issue chose to let the robber go.,"Imagine you have witnessed someone rob a bank. However, you then saw them do something unexpected with the money. They donated it all to a run-down orphanage that would benefit greatly from the money. You must decide whether to call the police and report the robber or do nothing and leave the robber alone.",0.8440166666666666,moral_dilemma_2A,1
3021,NA,NA,20,,Graduated High School,1629988149840,281,male,s1,German,Participants chose which action they preferred.,"Due to a computer error, participants were not allocated equally to imagine performing the different actions.",No data was saved during the experiment.,The participants completed the experiment with their eyes closed.,I don't understand what is happening here.,NA,NA,"To ensure you understood the assignment, please click on which of the following statements is true.",Participants chose which action they preferred.,NA,NA,NA,NA,NA,Thu Aug 26 2021 16:28:19 GMT+0200 (CEST),1629988099199,NA,NA,0.8440166666666666,understanding_choice,1
3021,,9207,20,,Graduated High School,1629988149840,281,male,NA,German,NA,NA,NA,NA,NA,happy,sad,How do you feel about your choice?,3,NA,NA,NA,NA,NA,Thu Aug 26 2021 16:28:19 GMT+0200 (CEST),1629988099199,NA,NA,0.8440166666666666,emotions_fake,1
2846,NA,NA,20,,Graduated High School,1629816402970,281,female,s1,German,Animal Products,Protesting,Vaccine against Covid-19,Abortion,Political Orientation,NA,NA,Which out of these topics do you care about the most?,Animal Products,NA,NA,NA,NA,NA,Tue Aug 24 2021 16:45:38 GMT+0200 (Mitteleuropäische Sommerzeit),1629816338510,NA,NA,1.0743333333333334,sentence_customized,1
2846,NA,NA,20,,Graduated High School,1629816402970,281,female,NA,German,NA,NA,NA,NA,NA,Strongly Disagree,Strongly Agree,NA,+4,People should not buy or eat animal products,It is alright if political protesters use violence to enforce their demands,Everybody who is medically suited to receive a vaccination against Covid-19 should get such a vaccination,Abortion should be illegal,I am politically oriented towards the left,Tue Aug 24 2021 16:45:38 GMT+0200 (Mitteleuropäische Sommerzeit),1629816338510,NA,NA,1.0743333333333334,rating_choice,1
2846,NA,NA,20,,Graduated High School,1629816402970,281,female,5,German,NA,NA,NA,NA,NA,Call the police and report the robbery.,"Nothing, and let the robber be on their way.",What do you do?,+2,NA,NA,NA,NA,NA,Tue Aug 24 2021 16:45:38 GMT+0200 (Mitteleuropäische Sommerzeit),1629816338510, <br/><br/>Approximately 60% of the other participants who agree with you on  your chosen issue chose to report the robber. <br/><br/> Approximately 85% of participants in a previous study who disagreed with you on  your chosen issue chose to let the robber go.,"Imagine you have witnessed someone rob a bank. However, you then saw them do something unexpected with the money. They donated it all to a run-down orphanage that would benefit greatly from the money. You must decide whether to call the police and report the robber or do nothing and leave the robber alone.",1.0743333333333334,moral_dilemma_2A,1
2846,NA,NA,20,,Graduated High School,1629816402970,281,female,s1,German,Participants chose which action they preferred.,"Due to a computer error, participants were not allocated equally to imagine performing the different actions.",No data was saved during the experiment.,The participants completed the experiment with their eyes closed.,I don't understand what is happening here.,NA,NA,"To ensure you understood the assignment, please click on which of the following statements is true.",Participants chose which action they preferred.,NA,NA,NA,NA,NA,Tue Aug 24 2021 16:45:38 GMT+0200 (Mitteleuropäische Sommerzeit),1629816338510,NA,NA,1.0743333333333334,understanding_choice,1
2846,,13596,20,,Graduated High School,1629816402970,281,female,NA,German,NA,NA,NA,NA,NA,happy,sad,How do you feel about your choice?,2,NA,NA,NA,NA,NA,Tue Aug 24 2021 16:45:38 GMT+0200 (Mitteleuropäische Sommerzeit),1629816338510,NA,NA,1.0743333333333334,emotions_fake,1
2804,NA,NA,24,"Ne Englisch is not the best, like it‘s Not the Yellow from the Egg. Behause of That I answer all Questions in the German Languege. I wish All the best für you Experiment.",Graduated College,1629799670580,281,male,s3,Deutsch ,Animal Products,Protesting,Vaccine against Covid-19,Abortion,Political Orientation,NA,NA,Which out of these topics do you care about the most?,Vaccine against Covid-19,NA,NA,NA,NA,NA,Tue Aug 24 2021 12:01:51 GMT+0200 (CEST),1629799311925,NA,NA,5.9775833333333335,sentence_customized,1
2804,NA,NA,24,"Ne Englisch is not the best, like it‘s Not the Yellow from the Egg. Behause of That I answer all Questions in the German Languege. I wish All the best für you Experiment.",Graduated College,1629799670580,281,male,NA,Deutsch ,NA,NA,NA,NA,NA,Strongly Disagree,Strongly Agree,NA,+5,People should not buy or eat animal products,It is alright if political protesters use violence to enforce their demands,Everybody who is medically suited to receive a vaccination against Covid-19 should get such a vaccination,Abortion should be illegal,I am politically oriented towards the left,Tue Aug 24 2021 12:01:51 GMT+0200 (CEST),1629799311925,NA,NA,5.9775833333333335,rating_choice,1
2804,NA,NA,24,"Ne Englisch is not the best, like it‘s Not the Yellow from the Egg. Behause of That I answer all Questions in the German Languege. I wish All the best für you Experiment.",Graduated College,1629799670580,281,male,6,Deutsch ,NA,NA,NA,NA,NA,Call the police and report the robbery.,"Nothing, and let the robber be on their way.",What do you do?,+3,NA,NA,NA,NA,NA,Tue Aug 24 2021 12:01:51 GMT+0200 (CEST),1629799311925, <br/><br/>Approximately 60% of the other participants who agree with you on  your chosen issue chose to report the robber. <br/><br/> Approximately 85% of participants in a previous study who disagreed with you on  your chosen issue chose to let the robber go.,"Imagine you have witnessed someone rob a bank. However, you then saw them do something unexpected with the money. They donated it all to a run-down orphanage that would benefit greatly from the money. You must decide whether to call the police and report the robber or do nothing and leave the robber alone.",5.9775833333333335,moral_dilemma_2A,1
2804,NA,NA,24,"Ne Englisch is not the best, like it‘s Not the Yellow from the Egg. Behause of That I answer all Questions in the German Languege. I wish All the best für you Experiment.",Graduated College,1629799670580,281,male,s5,Deutsch ,Participants chose which action they preferred.,"Due to a computer error, participants were not allocated equally to imagine performing the different actions.",No data was saved during the experiment.,The participants completed the experiment with their eyes closed.,I don't understand what is happening here.,NA,NA,"To ensure you understood the assignment, please click on which of the following statements is true.",I don't understand what is happening here.,NA,NA,NA,NA,NA,Tue Aug 24 2021 12:01:51 GMT+0200 (CEST),1629799311925,NA,NA,5.9775833333333335,understanding_choice,1
2804,,10682,24,"Ne Englisch is not the best, like it‘s Not the Yellow from the Egg. Behause of That I answer all Questions in the German Languege. I wish All the best für you Experiment.",Graduated College,1629799670580,281,male,NA,Deutsch ,NA,NA,NA,NA,NA,happy,sad,How do you feel about your choice?,1,NA,NA,NA,NA,NA,Tue Aug 24 2021 12:01:51 GMT+0200 (CEST),1629799311925,NA,NA,5.9775833333333335,emotions_fake,1
2801,NA,NA,20,,Graduated High School,1629796010860,281,female,s4,German and Polish,Animal Products,Protesting,Vaccine against Covid-19,Abortion,Political Orientation,NA,NA,Which out of these topics do you care about the most?,Abortion,NA,NA,NA,NA,NA,Tue Aug 24 2021 11:05:09 GMT+0200 (CEST),1629795909031,NA,NA,1.69715,sentence_customized,1
2801,NA,NA,20,,Graduated High School,1629796010860,281,female,NA,German and Polish,NA,NA,NA,NA,NA,Strongly Disagree,Strongly Agree,NA,-5,People should not buy or eat animal products,It is alright if political protesters use violence to enforce their demands,Everybody who is medically suited to receive a vaccination against Covid-19 should get such a vaccination,Abortion should be illegal,I am politically oriented towards the left,Tue Aug 24 2021 11:05:09 GMT+0200 (CEST),1629795909031,NA,NA,1.69715,rating_choice,1
2801,NA,NA,20,,Graduated High School,1629796010860,281,female,2,German and Polish,NA,NA,NA,NA,NA,Call the police and report the robbery.,"Nothing, and let the robber be on their way.",What do you do?,-2,NA,NA,NA,NA,NA,Tue Aug 24 2021 11:05:09 GMT+0200 (CEST),1629795909031, <br/><br/>Approximately 60% of the other participants who agree with you on your chosen issue chose to let the robber go.,"Imagine you have witnessed someone rob a bank. However, you then saw them do something unexpected with the money. They donated it all to a run-down orphanage that would benefit greatly from the money. You must decide whether to call the police and report the robber or do nothing and leave the robber alone.",1.69715,moral_dilemma_2A,1
2801,NA,NA,20,,Graduated High School,1629796010860,281,female,s1,German and Polish,Participants chose which action they preferred.,"Due to a computer error, participants were not allocated equally to imagine performing the different actions.",No data was saved during the experiment.,The participants completed the experiment with their eyes closed.,I don't understand what is happening here.,NA,NA,"To ensure you understood the assignment, please click on which of the following statements is true.",Participants chose which action they preferred.,NA,NA,NA,NA,NA,Tue Aug 24 2021 11:05:09 GMT+0200 (CEST),1629795909031,NA,NA,1.69715,understanding_choice,1
2801,,16911,20,,Graduated High School,1629796010860,281,female,NA,German and Polish,NA,NA,NA,NA,NA,happy,sad,How do you feel about your choice?,6,NA,NA,NA,NA,NA,Tue Aug 24 2021 11:05:09 GMT+0200 (CEST),1629795909031,NA,NA,1.69715,emotions_fake,1
2799,NA,NA,26,,Graduated College,1629794082690,281,male,s1,german,Animal Products,Protesting,Vaccine against Covid-19,Abortion,Political Orientation,NA,NA,Which out of these topics do you care about the most?,Animal Products,NA,NA,NA,NA,NA,Tue Aug 24 2021 10:34:07 GMT+0200 (Central European Summer Time),1629794047240,NA,NA,0.5908333333333333,sentence_customized,1
2799,NA,NA,26,,Graduated College,1629794082690,281,male,NA,german,NA,NA,NA,NA,NA,Strongly Disagree,Strongly Agree,NA,+4,People should not buy or eat animal products,It is alright if political protesters use violence to enforce their demands,Everybody who is medically suited to receive a vaccination against Covid-19 should get such a vaccination,Abortion should be illegal,I am politically oriented towards the left,Tue Aug 24 2021 10:34:07 GMT+0200 (Central European Summer Time),1629794047240,NA,NA,0.5908333333333333,rating_choice,1
2799,NA,NA,26,,Graduated College,1629794082690,281,male,5,german,NA,NA,NA,NA,NA,Call the police and report the robbery.,"Nothing, and let the robber be on their way.",What do you do?,+2,NA,NA,NA,NA,NA,Tue Aug 24 2021 10:34:07 GMT+0200 (Central European Summer Time),1629794047240, <br/><br/>Approximately 60% of the other participants who agree with you on  your chosen issue chose to report the robber. <br/><br/> Approximately 85% of participants in a previous study who disagreed with you on  your chosen issue chose to let the robber go.,"Imagine you have witnessed someone rob a bank. However, you then saw them do something unexpected with the money. They donated it all to a run-down orphanage that would benefit greatly from the money. You must decide whether to call the police and report the robber or do nothing and leave the robber alone.",0.5908333333333333,moral_dilemma_2A,1
2799,NA,NA,26,,Graduated College,1629794082690,281,male,s1,german,Participants chose which action they preferred.,"Due to a computer error, participants were not allocated equally to imagine performing the different actions.",No data was saved during the experiment.,The participants completed the experiment with their eyes closed.,I don't understand what is happening here.,NA,NA,"To ensure you understood the assignment, please click on which of the following statements is true.",Participants chose which action they preferred.,NA,NA,NA,NA,NA,Tue Aug 24 2021 10:34:07 GMT+0200 (Central European Summer Time),1629794047240,NA,NA,0.5908333333333333,understanding_choice,1
2799,,4127,26,,Graduated College,1629794082690,281,male,NA,german,NA,NA,NA,NA,NA,happy,sad,How do you feel about your choice?,2,NA,NA,NA,NA,NA,Tue Aug 24 2021 10:34:07 GMT+0200 (Central European Summer Time),1629794047240,NA,NA,0.5908333333333333,emotions_fake,1
2797,NA,NA,23,,Graduated High School,1629789678954,281,female,s5,German,Animal Products,Protesting,Vaccine against Covid-19,Abortion,Political Orientation,NA,NA,Which out of these topics do you care about the most?,Political Orientation,NA,NA,NA,NA,NA,Tue Aug 24 2021 09:21:03 GMT+0200 (Central European Summer Time),1629789663158,NA,NA,0.26326666666666665,sentence_customized,1
2797,NA,NA,23,,Graduated High School,1629789678954,281,female,NA,German,NA,NA,NA,NA,NA,Strongly Disagree,Strongly Agree,NA,+3,People should not buy or eat animal products,It is alright if political protesters use violence to enforce their demands,Everybody who is medically suited to receive a vaccination against Covid-19 should get such a vaccination,Abortion should be illegal,I am politically oriented towards the left,Tue Aug 24 2021 09:21:03 GMT+0200 (Central European Summer Time),1629789663158,NA,NA,0.26326666666666665,rating_choice,1
2797,NA,NA,23,,Graduated High School,1629789678954,281,female,5,German,NA,NA,NA,NA,NA,Call the police and report the robbery.,"Nothing, and let the robber be on their way.",What do you do?,+2,NA,NA,NA,NA,NA,Tue Aug 24 2021 09:21:03 GMT+0200 (Central European Summer Time),1629789663158, <br/><br/>60% of the other participants who agree with you on your chosen issue chose to report the robber.,"Imagine you have witnessed someone rob a bank. However, you then saw them do something unexpected with the money. They donated it all to a run-down orphanage that would benefit greatly from the money. You must decide whether to call the police and report the robber or do nothing and leave the robber alone.",0.26326666666666665,moral_dilemma_2A,1
2797,NA,NA,23,,Graduated High School,1629789678954,281,female,s1,German,Participants chose which action they preferred.,"Due to a computer error, participants were not allocated equally to imagine performing the different actions.",No data was saved during the experiment.,The participants completed the experiment with their eyes closed.,I don't understand what is happening here.,NA,NA,"To ensure you understood the assignment, please click on which of the following statements is true.",Participants chose which action they preferred.,NA,NA,NA,NA,NA,Tue Aug 24 2021 09:21:03 GMT+0200 (Central European Summer Time),1629789663158,NA,NA,0.26326666666666665,understanding_choice,1
2797,,3400,23,,Graduated High School,1629789678954,281,female,NA,German,NA,NA,NA,NA,NA,happy,sad,How do you feel about your choice?,4,NA,NA,NA,NA,NA,Tue Aug 24 2021 09:21:03 GMT+0200 (Central European Summer Time),1629789663158,NA,NA,0.26326666666666665,emotions_fake,1
2788,NA,NA,22,,Graduated High School,1629721657316,281,female,s5,German,Animal Products,Protesting,Vaccine against Covid-19,Abortion,Political Orientation,NA,NA,Which out of these topics do you care about the most?,Political Orientation,NA,NA,NA,NA,NA,Mon Aug 23 2021 14:27:04 GMT+0200 (Central European Summer Time),1629721624907,NA,NA,0.54015,sentence_customized,1
2788,NA,NA,22,,Graduated High School,1629721657316,281,female,NA,German,NA,NA,NA,NA,NA,Strongly Disagree,Strongly Agree,NA,+3,People should not buy or eat animal products,It is alright if political protesters use violence to enforce their demands,Everybody who is medically suited to receive a vaccination against Covid-19 should get such a vaccination,Abortion should be illegal,I am politically oriented towards the left,Mon Aug 23 2021 14:27:04 GMT+0200 (Central European Summer Time),1629721624907,NA,NA,0.54015,rating_choice,1
2788,NA,NA,22,,Graduated High School,1629721657316,281,female,5,German,NA,NA,NA,NA,NA,Call the police and report the robbery.,"Nothing, and let the robber be on their way.",What do you do?,+2,NA,NA,NA,NA,NA,Mon Aug 23 2021 14:27:04 GMT+0200 (Central European Summer Time),1629721624907, <br/><br/>Approximately 60% of the other participants who agree with you on your chosen issue chose to let the robber go.,"Imagine you have witnessed someone rob a bank. However, you then saw them do something unexpected with the money. They donated it all to a run-down orphanage that would benefit greatly from the money. You must decide whether to call the police and report the robber or do nothing and leave the robber alone.",0.54015,moral_dilemma_2A,1
2788,NA,NA,22,,Graduated High School,1629721657316,281,female,s1,German,Participants chose which action they preferred.,"Due to a computer error, participants were not allocated equally to imagine performing the different actions.",No data was saved during the experiment.,The participants completed the experiment with their eyes closed.,I don't understand what is happening here.,NA,NA,"To ensure you understood the assignment, please click on which of the following statements is true.",Participants chose which action they preferred.,NA,NA,NA,NA,NA,Mon Aug 23 2021 14:27:04 GMT+0200 (Central European Summer Time),1629721624907,NA,NA,0.54015,understanding_choice,1
2788,,9826,22,,Graduated High School,1629721657316,281,female,NA,German,NA,NA,NA,NA,NA,happy,sad,How do you feel about your choice?,2,NA,NA,NA,NA,NA,Mon Aug 23 2021 14:27:04 GMT+0200 (Central European Summer Time),1629721624907,NA,NA,0.54015,emotions_fake,1
2786,NA,NA,19,,Graduated High School,1629714540687,281,male,s1,Spanisch und Guaraní ,Animal Products,Protesting,Vaccine against Covid-19,Abortion,Political Orientation,NA,NA,Which out of these topics do you care about the most?,Animal Products,NA,NA,NA,NA,NA,Mon Aug 23 2021 12:28:10 GMT+0200 (CEST),1629714490648,NA,NA,0.8339833333333333,sentence_customized,1
2786,NA,NA,19,,Graduated High School,1629714540687,281,male,NA,Spanisch und Guaraní ,NA,NA,NA,NA,NA,Strongly Disagree,Strongly Agree,NA,+3,People should not buy or eat animal products,It is alright if political protesters use violence to enforce their demands,Everybody who is medically suited to receive a vaccination against Covid-19 should get such a vaccination,Abortion should be illegal,I am politically oriented towards the left,Mon Aug 23 2021 12:28:10 GMT+0200 (CEST),1629714490648,NA,NA,0.8339833333333333,rating_choice,1
2786,NA,NA,19,,Graduated High School,1629714540687,281,male,3,Spanisch und Guaraní ,NA,NA,NA,NA,NA,Call the police and report the robbery.,"Nothing, and let the robber be on their way.",What do you do?,-1,NA,NA,NA,NA,NA,Mon Aug 23 2021 12:28:10 GMT+0200 (CEST),1629714490648, <br/><br/>Approximately 60% of the other participants who agree with you on  your chosen issue chose to report the robber. <br/><br/> Approximately 85% of participants in a previous study who disagreed with you on  your chosen issue chose to let the robber go.,"Imagine you have witnessed someone rob a bank. However, you then saw them do something unexpected with the money. They donated it all to a run-down orphanage that would benefit greatly from the money. You must decide whether to call the police and report the robber or do nothing and leave the robber alone.",0.8339833333333333,moral_dilemma_2A,1
2786,NA,NA,19,,Graduated High School,1629714540687,281,male,s1,Spanisch und Guaraní ,Participants chose which action they preferred.,"Due to a computer error, participants were not allocated equally to imagine performing the different actions.",No data was saved during the experiment.,The participants completed the experiment with their eyes closed.,I don't understand what is happening here.,NA,NA,"To ensure you understood the assignment, please click on which of the following statements is true.",Participants chose which action they preferred.,NA,NA,NA,NA,NA,Mon Aug 23 2021 12:28:10 GMT+0200 (CEST),1629714490648,NA,NA,0.8339833333333333,understanding_choice,1
2786,,6853,19,,Graduated High School,1629714540687,281,male,NA,Spanisch und Guaraní ,NA,NA,NA,NA,NA,happy,sad,How do you feel about your choice?,3,NA,NA,NA,NA,NA,Mon Aug 23 2021 12:28:10 GMT+0200 (CEST),1629714490648,NA,NA,0.8339833333333333,emotions_fake,1
2785,NA,NA,19,,Graduated High School,1629713328950,281,female,s1,German,Animal Products,Protesting,Vaccine against Covid-19,Abortion,Political Orientation,NA,NA,Which out of these topics do you care about the most?,Animal Products,NA,NA,NA,NA,NA,Mon Aug 23 2021 12:07:47 GMT+0200 (Central European Summer Time),1629713267069,NA,NA,1.03135,sentence_customized,1
2785,NA,NA,19,,Graduated High School,1629713328950,281,female,NA,German,NA,NA,NA,NA,NA,Strongly Disagree,Strongly Agree,NA,+3,People should not buy or eat animal products,It is alright if political protesters use violence to enforce their demands,Everybody who is medically suited to receive a vaccination against Covid-19 should get such a vaccination,Abortion should be illegal,I am politically oriented towards the left,Mon Aug 23 2021 12:07:47 GMT+0200 (Central European Summer Time),1629713267069,NA,NA,1.03135,rating_choice,1
2785,NA,NA,19,,Graduated High School,1629713328950,281,female,4,German,NA,NA,NA,NA,NA,Call the police and report the robbery.,"Nothing, and let the robber be on their way.",What do you do?,+1,NA,NA,NA,NA,NA,Mon Aug 23 2021 12:07:47 GMT+0200 (Central European Summer Time),1629713267069, <br/><br/>Approximately 60% of the other participants who agree with you on  your chosen issue chose to report the robber. <br/><br/> Approximately 85% of participants in a previous study who disagreed with you on  your chosen issue chose to let the robber go.,"Imagine you have witnessed someone rob a bank. However, you then saw them do something unexpected with the money. They donated it all to a run-down orphanage that would benefit greatly from the money. You must decide whether to call the police and report the robber or do nothing and leave the robber alone.",1.03135,moral_dilemma_2A,1
2785,NA,NA,19,,Graduated High School,1629713328950,281,female,s5,German,Participants chose which action they preferred.,"Due to a computer error, participants were not allocated equally to imagine performing the different actions.",No data was saved during the experiment.,The participants completed the experiment with their eyes closed.,I don't understand what is happening here.,NA,NA,"To ensure you understood the assignment, please click on which of the following statements is true.",I don't understand what is happening here.,NA,NA,NA,NA,NA,Mon Aug 23 2021 12:07:47 GMT+0200 (Central European Summer Time),1629713267069,NA,NA,1.03135,understanding_choice,1
2785,,8112,19,,Graduated High School,1629713328950,281,female,NA,German,NA,NA,NA,NA,NA,happy,sad,How do you feel about your choice?,2,NA,NA,NA,NA,NA,Mon Aug 23 2021 12:07:47 GMT+0200 (Central European Summer Time),1629713267069,NA,NA,1.03135,emotions_fake,1
2784,NA,NA,22,,Graduated College,1629713146660,281,male,s5,"Bulgarian, German ",Animal Products,Protesting,Vaccine against Covid-19,Abortion,Political Orientation,NA,NA,Which out of these topics do you care about the most?,Political Orientation,NA,NA,NA,NA,NA,Mon Aug 23 2021 12:05:21 GMT+0200 (Mitteleuropäische Sommerzeit),1629713121057,NA,NA,0.4267166666666667,sentence_customized,1
2784,NA,NA,22,,Graduated College,1629713146660,281,male,NA,"Bulgarian, German ",NA,NA,NA,NA,NA,Strongly Disagree,Strongly Agree,NA,+3,People should not buy or eat animal products,It is alright if political protesters use violence to enforce their demands,Everybody who is medically suited to receive a vaccination against Covid-19 should get such a vaccination,Abortion should be illegal,I am politically oriented towards the left,Mon Aug 23 2021 12:05:21 GMT+0200 (Mitteleuropäische Sommerzeit),1629713121057,NA,NA,0.4267166666666667,rating_choice,1
2784,NA,NA,22,,Graduated College,1629713146660,281,male,5,"Bulgarian, German ",NA,NA,NA,NA,NA,Call the police and report the robbery.,"Nothing, and let the robber be on their way.",What do you do?,+2,NA,NA,NA,NA,NA,Mon Aug 23 2021 12:05:21 GMT+0200 (Mitteleuropäische Sommerzeit),1629713121057, <br/><br/>Approximately 60% of the other participants who agree with you on  your chosen issue chose to report the robber. <br/><br/> Approximately 85% of participants in a previous study who disagreed with you on  your chosen issue chose to let the robber go.,"Imagine you have witnessed someone rob a bank. However, you then saw them do something unexpected with the money. They donated it all to a run-down orphanage that would benefit greatly from the money. You must decide whether to call the police and report the robber or do nothing and leave the robber alone.",0.4267166666666667,moral_dilemma_2A,1
2784,NA,NA,22,,Graduated College,1629713146660,281,male,s1,"Bulgarian, German ",Participants chose which action they preferred.,"Due to a computer error, participants were not allocated equally to imagine performing the different actions.",No data was saved during the experiment.,The participants completed the experiment with their eyes closed.,I don't understand what is happening here.,NA,NA,"To ensure you understood the assignment, please click on which of the following statements is true.",Participants chose which action they preferred.,NA,NA,NA,NA,NA,Mon Aug 23 2021 12:05:21 GMT+0200 (Mitteleuropäische Sommerzeit),1629713121057,NA,NA,0.4267166666666667,understanding_choice,1
2784,,3012,22,,Graduated College,1629713146660,281,male,NA,"Bulgarian, German ",NA,NA,NA,NA,NA,happy,sad,How do you feel about your choice?,2,NA,NA,NA,NA,NA,Mon Aug 23 2021 12:05:21 GMT+0200 (Mitteleuropäische Sommerzeit),1629713121057,NA,NA,0.4267166666666667,emotions_fake,1
2780,NA,NA,24,,Graduated High School,1629709876098,281,female,s4,German,Animal Products,Protesting,Vaccine against Covid-19,Abortion,Political Orientation,NA,NA,Which out of these topics do you care about the most?,Abortion,NA,NA,NA,NA,NA,Mon Aug 23 2021 11:10:16 GMT+0200 (Mitteleuropäische Sommerzeit),1629709816875,NA,NA,0.98705,sentence_customized,1
2780,NA,NA,24,,Graduated High School,1629709876098,281,female,NA,German,NA,NA,NA,NA,NA,Strongly Disagree,Strongly Agree,NA,-5,People should not buy or eat animal products,It is alright if political protesters use violence to enforce their demands,Everybody who is medically suited to receive a vaccination against Covid-19 should get such a vaccination,Abortion should be illegal,I am politically oriented towards the left,Mon Aug 23 2021 11:10:16 GMT+0200 (Mitteleuropäische Sommerzeit),1629709816875,NA,NA,0.98705,rating_choice,1
2780,NA,NA,24,,Graduated High School,1629709876098,281,female,4,German,NA,NA,NA,NA,NA,Call the police and report the robbery.,"Nothing, and let the robber be on their way.",What do you do?,+1,NA,NA,NA,NA,NA,Mon Aug 23 2021 11:10:16 GMT+0200 (Mitteleuropäische Sommerzeit),1629709816875, <br/><br/>Approximately 60% of the other participants who agree with you on  your chosen issue chose to report the robber. <br/><br/> Approximately 85% of participants in a previous study who disagreed with you on  your chosen issue chose to let the robber go.,"Imagine you have witnessed someone rob a bank. However, you then saw them do something unexpected with the money. They donated it all to a run-down orphanage that would benefit greatly from the money. You must decide whether to call the police and report the robber or do nothing and leave the robber alone.",0.98705,moral_dilemma_2A,1
2780,NA,NA,24,,Graduated High School,1629709876098,281,female,s1,German,Participants chose which action they preferred.,"Due to a computer error, participants were not allocated equally to imagine performing the different actions.",No data was saved during the experiment.,The participants completed the experiment with their eyes closed.,I don't understand what is happening here.,NA,NA,"To ensure you understood the assignment, please click on which of the following statements is true.",Participants chose which action they preferred.,NA,NA,NA,NA,NA,Mon Aug 23 2021 11:10:16 GMT+0200 (Mitteleuropäische Sommerzeit),1629709816875,NA,NA,0.98705,understanding_choice,1
2780,,8005,24,,Graduated High School,1629709876098,281,female,NA,German,NA,NA,NA,NA,NA,happy,sad,How do you feel about your choice?,4,NA,NA,NA,NA,NA,Mon Aug 23 2021 11:10:16 GMT+0200 (Mitteleuropäische Sommerzeit),1629709816875,NA,NA,0.98705,emotions_fake,1
2779,NA,NA,23,,Graduated High School,1629672814624,281,female,s1,,Animal Products,Protesting,Vaccine against Covid-19,Abortion,Political Orientation,NA,NA,Which out of these topics do you care about the most?,Animal Products,NA,NA,NA,NA,NA,Mon Aug 23 2021 00:52:38 GMT+0200 (CEST),1629672758724,NA,NA,0.9316666666666666,sentence_customized,1
2779,NA,NA,23,,Graduated High School,1629672814624,281,female,NA,,NA,NA,NA,NA,NA,Strongly Disagree,Strongly Agree,NA,+2,People should not buy or eat animal products,It is alright if political protesters use violence to enforce their demands,Everybody who is medically suited to receive a vaccination against Covid-19 should get such a vaccination,Abortion should be illegal,I am politically oriented towards the left,Mon Aug 23 2021 00:52:38 GMT+0200 (CEST),1629672758724,NA,NA,0.9316666666666666,rating_choice,1
2779,NA,NA,23,,Graduated High School,1629672814624,281,female,6,,NA,NA,NA,NA,NA,Call the police and report the robbery.,"Nothing, and let the robber be on their way.",What do you do?,+3,NA,NA,NA,NA,NA,Mon Aug 23 2021 00:52:38 GMT+0200 (CEST),1629672758724, <br/><br/>Approximately 60% of the other participants who agree with you on  your chosen issue chose to let the robber go. <br/><br/> Approximately 85% of participants in a previous study who disagreed with you on  your chosen issue chose to report the robber.,"Imagine you have witnessed someone rob a bank. However, you then saw them do something unexpected with the money. They donated it all to a run-down orphanage that would benefit greatly from the money. You must decide whether to call the police and report the robber or do nothing and leave the robber alone.",0.9316666666666666,moral_dilemma_2A,1
2779,NA,NA,23,,Graduated High School,1629672814624,281,female,s1,,Participants chose which action they preferred.,"Due to a computer error, participants were not allocated equally to imagine performing the different actions.",No data was saved during the experiment.,The participants completed the experiment with their eyes closed.,I don't understand what is happening here.,NA,NA,"To ensure you understood the assignment, please click on which of the following statements is true.",Participants chose which action they preferred.,NA,NA,NA,NA,NA,Mon Aug 23 2021 00:52:38 GMT+0200 (CEST),1629672758724,NA,NA,0.9316666666666666,understanding_choice,1
2779,,10715,23,,Graduated High School,1629672814624,281,female,NA,,NA,NA,NA,NA,NA,happy,sad,How do you feel about your choice?,4,NA,NA,NA,NA,NA,Mon Aug 23 2021 00:52:38 GMT+0200 (CEST),1629672758724,NA,NA,0.9316666666666666,emotions_fake,1
2774,NA,NA,23,,Graduated College,1629655087557,281,male,s5,German,Animal Products,Protesting,Vaccine against Covid-19,Abortion,Political Orientation,NA,NA,Which out of these topics do you care about the most?,Political Orientation,NA,NA,NA,NA,NA,Sun Aug 22 2021 19:57:27 GMT+0200 (CEST),1629655047767,NA,NA,0.6631666666666667,sentence_customized,1
2774,NA,NA,23,,Graduated College,1629655087557,281,male,NA,German,NA,NA,NA,NA,NA,Strongly Disagree,Strongly Agree,NA,+4,People should not buy or eat animal products,It is alright if political protesters use violence to enforce their demands,Everybody who is medically suited to receive a vaccination against Covid-19 should get such a vaccination,Abortion should be illegal,I am politically oriented towards the left,Sun Aug 22 2021 19:57:27 GMT+0200 (CEST),1629655047767,NA,NA,0.6631666666666667,rating_choice,1
2774,NA,NA,23,,Graduated College,1629655087557,281,male,5,German,NA,NA,NA,NA,NA,Call the police and report the robbery.,"Nothing, and let the robber be on their way.",What do you do?,+2,NA,NA,NA,NA,NA,Sun Aug 22 2021 19:57:27 GMT+0200 (CEST),1629655047767, <br/><br/>60% of the other participants who agree with you on your chosen issue chose to report the robber.,"Imagine you have witnessed someone rob a bank. However, you then saw them do something unexpected with the money. They donated it all to a run-down orphanage that would benefit greatly from the money. You must decide whether to call the police and report the robber or do nothing and leave the robber alone.",0.6631666666666667,moral_dilemma_2A,1
2774,NA,NA,23,,Graduated College,1629655087557,281,male,s1,German,Participants chose which action they preferred.,"Due to a computer error, participants were not allocated equally to imagine performing the different actions.",No data was saved during the experiment.,The participants completed the experiment with their eyes closed.,I don't understand what is happening here.,NA,NA,"To ensure you understood the assignment, please click on which of the following statements is true.",Participants chose which action they preferred.,NA,NA,NA,NA,NA,Sun Aug 22 2021 19:57:27 GMT+0200 (CEST),1629655047767,NA,NA,0.6631666666666667,understanding_choice,1
2774,,4962,23,,Graduated College,1629655087557,281,male,NA,German,NA,NA,NA,NA,NA,happy,sad,How do you feel about your choice?,2,NA,NA,NA,NA,NA,Sun Aug 22 2021 19:57:27 GMT+0200 (CEST),1629655047767,NA,NA,0.6631666666666667,emotions_fake,1
2772,NA,NA,24,,Graduated College,1629653761438,281,female,s5,German,Animal Products,Protesting,Vaccine against Covid-19,Abortion,Political Orientation,NA,NA,Which out of these topics do you care about the most?,Political Orientation,NA,NA,NA,NA,NA,Sun Aug 22 2021 19:35:19 GMT+0200 (CEST),1629653719952,NA,NA,0.6914333333333333,sentence_customized,1
2772,NA,NA,24,,Graduated College,1629653761438,281,female,NA,German,NA,NA,NA,NA,NA,Strongly Disagree,Strongly Agree,NA,+5,People should not buy or eat animal products,It is alright if political protesters use violence to enforce their demands,Everybody who is medically suited to receive a vaccination against Covid-19 should get such a vaccination,Abortion should be illegal,I am politically oriented towards the left,Sun Aug 22 2021 19:35:19 GMT+0200 (CEST),1629653719952,NA,NA,0.6914333333333333,rating_choice,1
